,Accel_x,Accel_y,Accel_z,Gyro_x,Gyro_y,Gyro_z,Motor_Temperature,RPM,Label
0,1.1875240234375,-4.1754876953124995,9.528922607421874,-2.5343511450381677,-0.5343511450381679,0.40458015267175573,25.730000000000018,,1
1,-0.7709329345703124,-2.0087351928710935,9.227253198242186,-2.5343511450381677,2.3893129770992365,-4.465648854961832,25.730000000000018,,1
2,0.9409212524414062,0.9241618408203125,13.88636962890625,-7.916030534351145,24.66412213740458,19.419847328244273,25.630000000000052,,1
3,2.5809493896484375,-0.7948749511718749,16.606182714843747,5.076335877862595,-12.854961832061068,4.519083969465649,25.850000000000023,,1
4,-7.048529687499999,0.45010991210937495,2.616862414550781,4.755725190839694,32.282442748091604,-15.778625954198473,25.690000000000055,,1
5,-9.392453112792968,7.513004809570312,-2.5234885498046875,-8.687022900763358,46.045801526717554,-7.297709923664122,25.55000000000001,,1
6,-0.51714755859375,1.6711527587890624,5.753266589355468,-24.801526717557252,49.2442748091603,25.709923664122137,25.55000000000001,,1
7,7.259219433593749,-9.366116894531249,7.9104422851562495,-25.022900763358777,44.43511450381679,44.12213740458015,25.55000000000001,,1
8,-3.27526787109375,-7.1586629638671875,3.299209887695312,7.229007633587786,-33.099236641221374,-19.0,25.55000000000001,,1
9,7.345410693359375,4.656722229003906,13.539210388183593,-69.87022900763358,106.9618320610687,61.48854961832061,25.55000000000001,,1
10,0.3591302490234375,-6.639121203613281,10.864887133789061,20.64885496183206,-7.541984732824427,11.251908396946565,25.55000000000001,,1
11,-0.22266075439453123,-13.986926098632813,14.755464831542968,58.541984732824424,-114.76335877862596,-12.198473282442748,25.55000000000001,,1
12,-6.174646081542968,-8.920795385742187,4.551377355957031,32.99236641221374,-72.52671755725191,-37.534351145038165,25.55000000000001,,1
13,9.591171850585937,2.8945898071289062,15.138537097167967,-77.34351145038168,106.87022900763358,25.076335877862597,25.55000000000001,,1
14,3.749319799804687,-9.313444458007812,19.61270144958496,-15.13740458015267,-11.259541984732824,17.18320610687023,25.55000000000001,,1
15,1.0630255371093749,-11.252747802734374,11.283872424316405,18.442748091603054,-61.099236641221374,-12.900763358778626,25.55000000000001,,1
16,-2.722207287597656,1.419761584472656,1.3742717529296875,-2.4732824427480917,17.732824427480917,-9.954198473282442,25.55000000000001,,1
17,3.0741549316406247,2.6216508178710938,2.5139117431640625,-47.717557251908396,103.89312977099236,28.244274809160306,25.55000000000001,,1
18,1.2880804931640624,-8.595183959960938,9.483432775878907,-8.045801526717558,5.900763358778626,2.9923664122137406,25.55000000000001,,1
19,4.927267016601562,-10.28549033203125,6.739677673339843,-31.83206106870229,47.412213740458014,4.129770992366412,25.55000000000001,,1
20,0.7541735229492187,-5.049371301269531,12.612654345703124,-20.931297709923665,33.37404580152672,-1.3282442748091603,25.55000000000001,,1
21,5.2265422241210935,-4.881777185058594,12.48097325439453,-37.656488549618324,81.1526717557252,34.93893129770992,25.55000000000001,,1
22,2.47081611328125,-11.48498536376953,4.740519287109374,7.221374045801527,1.5038167938931297,-14.450381679389313,25.55000000000001,,1
23,4.611232397460937,-0.8906430175781249,18.069039929199217,-38.603053435114504,64.74809160305344,31.38167938931298,25.55000000000001,,1
24,2.5043349365234375,-10.66137999267578,15.330073229980467,26.870229007633586,-32.94656488549618,-12.320610687022901,25.55000000000001,,1
25,-2.138022082519531,-7.572859851074218,8.40843623046875,41.778625954198475,-61.778625954198475,-44.52671755725191,25.55000000000001,,1
26,-0.6248866333007812,-0.44053310546874996,18.849549670410155,11.717557251908397,-38.732824427480914,-4.206106870229007,25.590000000000032,,1
27,-3.191470812988281,-0.584185205078125,8.231265307617187,27.625954198473284,20.549618320610687,-14.992366412213741,25.590000000000032,,1
28,2.1715409057617188,-2.013523596191406,10.371681591796875,-40.152671755725194,69.5114503816794,22.69465648854962,25.870000000000005,,1
29,1.1252747802734375,-1.9680337646484374,7.613561279296874,-38.02290076335878,66.29770992366412,28.84732824427481,25.870000000000005,,1
30,3.835511059570312,-2.612074011230469,19.481618908691406,-29.564885496183205,79.83206106870229,43.31297709923664,25.870000000000005,,1
31,1.350329736328125,-11.14022032470703,16.08843660583496,-3.763358778625954,13.954198473282442,27.129770992366414,25.870000000000005,,1
32,-1.254561669921875,-8.508992700195313,5.382165332031249,38.83206106870229,-59.01526717557252,-6.854961832061068,25.610000000000014,,1
33,-1.0702081420898437,-7.704540942382812,2.8658593872070313,24.290076335877863,-36.41984732824427,-19.244274809160306,25.610000000000014,,1
34,2.375048046875,2.5234885498046875,9.380482104492186,-28.129770992366414,6.984732824427481,-7.106870229007634,25.610000000000014,,1
35,-1.2928688964843749,-2.118868469238281,15.521609362792967,-7.99236641221374,-44.3206106870229,-26.412213740458014,25.610000000000014,,1
36,-1.0773907470703123,-8.422801440429687,7.388506323242187,-25.572519083969464,29.297709923664122,27.51145038167939,25.610000000000014,,1
37,7.268796240234375,-6.3901242309570305,8.93755479736328,9.419847328244275,0.8854961832061069,-20.6793893129771,25.610000000000014,,1
38,8.319850769042969,-1.608903515625,8.269572534179687,-2.9083969465648853,-50.67175572519084,-82.10687022900764,25.610000000000014,,1
39,0.9935936889648437,-4.829104748535156,8.470685473632813,-23.96946564885496,-44.20610687022901,-21.49618320610687,25.610000000000014,,1
40,-2.114080065917969,-0.1771709228515625,11.159373937988281,19.213740458015266,-48.97709923664122,-28.51145038167939,25.610000000000014,,1
41,-5.370194323730469,-1.6400281372070311,13.005303417968749,12.67175572519084,-25.427480916030536,-9.221374045801527,25.750000000000057,,1
42,-2.4109610717773435,-0.9361328491210937,11.88721124267578,7.648854961832061,6.175572519083969,-8.16793893129771,25.750000000000057,,1
43,4.216189123535156,-7.003039855957031,11.54244620361328,-7.595419847328245,56.770992366412216,25.412213740458014,25.750000000000057,,1
44,5.178658190917968,-7.915230688476562,7.589619262695312,-14.938931297709924,58.43511450381679,28.9618320610687,25.750000000000057,,1
45,0.07900865478515624,-6.471527087402343,9.157821350097656,0.1450381679389313,7.320610687022901,-1.1221374045801527,25.750000000000057,,1
46,4.211400720214844,-4.187458703613281,7.072471704101562,-39.396946564885496,39.229007633587784,4.511450381679389,25.750000000000057,,1
47,-0.7541735229492187,-0.6392518432617187,9.02135185546875,-40.99236641221374,36.37404580152672,18.954198473282442,25.750000000000057,,1
48,-2.114080065917969,-5.1140147460937495,12.299013928222655,-35.83206106870229,60.343511450381676,44.030534351145036,25.750000000000057,,1
49,-0.16041151123046873,-3.9839515624999997,8.10197841796875,-46.954198473282446,88.37404580152672,49.48854961832061,25.750000000000057,,1
50,0.5985504150390625,-0.9624690673828125,10.213664282226562,-16.61832061068702,62.12213740458015,-6.893129770992366,25.750000000000057,,1
51,-0.93852705078125,-3.248931652832031,3.878606689453125,-15.01526717557252,56.541984732824424,8.030534351145038,25.910000000000025,,1
52,-1.024718310546875,2.250549560546875,11.252747802734374,-15.488549618320612,9.84732824427481,5.633587786259542,25.910000000000025,,1
53,-0.39264907226562495,2.224213342285156,13.41950030517578,-15.244274809160306,3.435114503816794,9.038167938931299,25.910000000000025,,1
54,0.277727392578125,-1.465251416015625,9.670180505371093,-20.389312977099237,13.610687022900763,20.229007633587788,25.910000000000025,,1
55,0.19632453613281248,-2.9568390502929685,12.330138549804687,-5.175572519083969,-14.053435114503817,8.083969465648854,25.910000000000025,,1
56,2.442085693359375,0.15562310791015624,10.307038146972655,-23.53435114503817,21.908396946564885,12.267175572519085,25.910000000000025,,1
57,0.32082302246093747,-3.0310593017578125,9.289502441406249,17.38167938931298,-6.427480916030534,-19.625954198473284,25.910000000000025,,1
58,-1.687912170410156,2.4660277099609376,7.6231380859375,-0.32061068702290074,-11.786259541984732,-24.633587786259543,25.910000000000025,,1
59,-0.8978256225585937,0.5602431884765625,12.282254516601562,-20.106870229007633,-41.030534351145036,-29.061068702290076,25.910000000000025,,1
60,2.6096798095703124,0.4070142822265625,8.616731774902343,-61.70229007633588,22.52671755725191,2.519083969465649,25.53000000000003,,1
61,-1.3862427612304686,-0.42377369384765623,10.12507882080078,2.1068702290076335,-30.572519083969464,-21.022900763358777,25.53000000000003,,1
62,-3.4931402221679684,-1.2569558715820313,8.137891442871092,22.435114503816795,-37.343511450381676,-25.6793893129771,25.53000000000003,,1
63,1.2018892333984375,0.7900865478515624,-3.9336733276367184,-123.86259541984732,103.97709923664122,94.73282442748092,25.53000000000003,,1
64,4.764461303710937,-2.906560815429687,9.636661682128906,-54.87786259541985,66.31297709923665,24.00763358778626,25.53000000000003,,1
65,0.39983167724609375,-7.0461354858398435,12.275071911621094,4.091603053435114,7.122137404580153,3.50381679389313,25.53000000000003,,1
66,2.863465185546875,-7.632714892578124,13.831302990722655,14.465648854961833,27.16793893129771,11.709923664122137,25.53000000000003,,1
67,3.0454245117187497,-7.867346655273437,8.47786807861328,-28.244274809160306,99.99236641221374,23.0,25.53000000000003,,1
68,3.4452561889648434,-5.616797094726562,9.730035546875,-12.061068702290076,71.73282442748092,27.786259541984734,25.53000000000003,,1
69,4.900930798339844,-6.229712719726562,8.487444885253906,-45.74809160305343,92.26717557251908,32.12213740458015,25.53000000000003,,1
70,2.8514941772460936,-10.412383020019531,14.633360546874998,-49.0,62.656488549618324,55.85496183206107,25.370000000000005,,1
71,1.0223241088867188,-15.272612390136718,11.671733093261718,22.458015267175572,-4.366412213740458,39.31297709923664,25.370000000000005,,1
72,1.1324573852539062,-8.683769421386717,5.932831713867187,39.412213740458014,-31.64885496183206,-12.282442748091603,25.370000000000005,,1
73,2.91134921875,-1.5107412475585937,14.18564483642578,-16.106870229007633,30.015267175572518,16.946564885496183,25.370000000000005,,1
74,6.579266162109374,-4.7931917236328125,17.69554447021484,-65.97709923664122,103.86259541984732,63.969465648854964,25.370000000000005,,1
75,4.714183068847656,-3.6104561035156246,13.120225097656249,-44.656488549618324,68.82442748091603,68.49618320610686,25.370000000000005,,1
76,-0.35194764404296874,-5.664681127929687,12.138602416992187,-17.297709923664122,9.206106870229007,27.31297709923664,25.370000000000005,,1
77,3.450044592285156,-8.655039001464843,11.851298217773437,-61.458015267175576,55.6793893129771,13.19083969465649,25.370000000000005,,1
78,5.741295581054687,-1.3407529296874998,15.351621044921874,15.900763358778626,-1.3969465648854962,12.732824427480915,25.370000000000005,,1
79,-7.493851196289062,-10.01015714111328,5.992686755371094,135.61068702290078,-93.94656488549619,-28.99236641221374,25.49000000000001,,1
80,0.8475473876953125,-7.292738256835937,6.476315490722656,31.755725190839694,-91.74045801526718,-51.030534351145036,25.49000000000001,,1
81,6.301538769531249,-0.06464344482421874,5.755660791015624,-109.82442748091603,3.183206106870229,10.183206106870228,25.49000000000001,,1
82,3.5673604736328124,-2.731784094238281,5.063736511230468,13.236641221374045,-50.31297709923664,-49.50381679389313,25.49000000000001,,1
83,1.4341267944335936,-6.133944653320312,11.927912670898436,23.900763358778626,-77.10687022900764,-34.35114503816794,25.49000000000001,,1
84,-3.220201232910156,-0.8882488159179687,10.529698901367187,-1.5190839694656488,-31.099236641221374,7.0458015267175576,25.49000000000001,,1
85,1.6232687255859375,-2.473210314941406,11.765106958007811,-27.587786259541986,32.18320610687023,18.908396946564885,25.49000000000001,63.65198414936644,1
86,1.4987702392578124,-1.5610194824218748,13.342885852050781,-41.732824427480914,2.7786259541984735,23.557251908396946,25.49000000000001,63.65198414936644,1
87,3.6104561035156246,-8.643067993164061,8.207323291015625,14.900763358778626,9.816793893129772,-4.374045801526718,25.49000000000001,,1
88,3.488351818847656,-5.1882349975585935,8.480262280273436,-3.7786259541984735,44.70229007633588,10.305343511450381,25.49000000000001,,1
89,4.029441394042968,-6.294356164550781,7.934384301757812,-23.72519083969466,55.0,33.16030534351145,25.810000000000002,,1
90,-8.437166650390624,-8.619125976562499,3.0837317382812497,10.603053435114504,-74.26717557251908,-37.786259541984734,25.810000000000002,,1
91,-4.393360046386719,-3.1459809814453124,6.885723974609375,-10.977099236641221,-23.625954198473284,-35.778625954198475,25.810000000000002,,1
92,2.6288334228515624,1.9728221679687499,10.249577307128906,-63.41984732824427,56.55725190839695,22.977099236641223,25.810000000000002,,1
93,2.779668127441406,2.5641899780273434,12.121843005371092,-48.58015267175573,53.396946564885496,10.664122137404581,25.810000000000002,,1
94,1.1516109985351561,-1.2689268798828124,7.893682873535155,-12.679389312977099,36.16030534351145,1.5801526717557253,25.810000000000002,,1
95,-1.350329736328125,-0.0047884033203125,10.216058483886718,-27.396946564885496,43.55725190839695,9.412213740458014,25.810000000000002,,1
96,-0.7350199096679687,-3.4069489624023435,11.698069311523437,-17.14503816793893,30.15267175572519,12.541984732824428,25.810000000000002,,1
97,-2.6001030029296874,-0.7158662963867187,3.708618371582031,-25.259541984732824,40.63358778625954,22.259541984732824,25.810000000000002,,1
98,-1.3910311645507811,-1.1755530151367186,11.590330236816406,-20.80916030534351,23.450381679389313,33.61068702290076,25.810000000000002,,1
99,1.7860744384765623,-5.434837768554687,14.896722729492186,-2.6412213740458017,-10.473282442748092,6.625954198473282,25.850000000000023,,1
100,-1.43652099609375,-12.093112585449218,13.826514587402343,33.48854961832061,-58.79389312977099,2.9389312977099236,25.850000000000023,,1
101,-1.4772224243164063,-13.520056774902343,4.082113830566406,66.5114503816794,-57.083969465648856,0.3282442748091603,25.850000000000023,,1
102,3.8953661010742184,-4.632780212402343,5.853823059082031,44.16030534351145,-52.12213740458015,-48.412213740458014,25.850000000000023,,1
103,-5.42047255859375,-5.506663818359375,4.587290380859375,34.900763358778626,-63.274809160305345,-41.35114503816794,25.850000000000023,,1
104,9.042899670410156,2.422932080078125,11.501744775390625,-47.778625954198475,-19.740458015267176,-35.083969465648856,25.850000000000023,,1
105,1.1013327636718748,-3.88818349609375,14.590264916992187,-19.480916030534353,-23.580152671755727,-4.740458015267175,25.850000000000023,,1
106,2.8323405639648436,-6.102820031738281,11.0707884765625,-18.557251908396946,24.580152671755727,20.83206106870229,25.850000000000023,,1
107,2.4947581298828125,-10.845733520507812,15.928623645019531,7.603053435114504,-23.702290076335878,0.816793893129771,25.850000000000023,,1
108,2.0278888061523435,-7.606378674316406,11.860875024414062,-8.297709923664122,-4.702290076335878,16.12213740458015,25.79000000000002,,1
109,4.13718046875,-6.603208178710937,10.290278735351562,-21.641221374045802,12.725190839694656,22.50381679389313,25.79000000000002,,1
110,-9.507374792480467,-6.339845996093749,5.947196923828125,86.79389312977099,-111.94656488549619,-56.76335877862596,25.79000000000002,,1
111,-2.5522189697265625,-7.673416320800781,14.238317272949217,12.076335877862595,-27.916030534351144,-0.42748091603053434,25.79000000000002,,1
112,-3.6583401367187496,-9.428366137695312,9.878476049804688,21.290076335877863,-14.664122137404581,23.114503816793892,25.79000000000002,,1
113,-6.380547424316406,-8.29351455078125,9.423577734375,18.297709923664122,-36.10687022900763,5.221374045801527,25.79000000000002,,1
114,-6.6319385986328125,-7.869740856933594,9.081206896972656,13.061068702290076,-41.48091603053435,8.595419847328245,25.79000000000002,,1
115,6.5218053222656245,-9.938331091308592,3.438073583984375,-30.34351145038168,86.2824427480916,51.847328244274806,25.79000000000002,,1
116,5.389347937011719,-8.801085302734375,9.835380419921874,-52.396946564885496,61.29770992366412,41.50381679389313,25.79000000000002,,1
117,-4.405331054687499,-12.363657373046875,16.376339355468748,130.68702290076337,-142.3969465648855,-27.633587786259543,25.79000000000002,,1
118,0.46686932373046874,-10.36210478515625,11.044452258300781,103.3587786259542,-71.45038167938931,-36.30534351145038,25.690000000000055,,1
119,0.06464344482421874,-6.9360022094726554,6.411672045898437,15.053435114503817,-29.52671755725191,-30.213740458015266,25.690000000000055,,1
120,0.3016694091796875,-5.980715747070312,9.68454571533203,-0.25190839694656486,-38.10687022900763,-14.0,25.690000000000055,,1
121,1.0127473022460938,-9.390058911132812,7.4411787597656245,8.541984732824428,-32.091603053435115,-6.091603053435114,25.690000000000055,,1
122,1.177947216796875,-8.628702783203124,-1.2282254516601563,55.3206106870229,-31.27480916030534,-79.42748091603053,25.690000000000055,,1
123,1.5897499023437498,-7.4794859863281244,5.9208607055664055,52.32824427480916,-70.27480916030534,-32.68702290076336,25.690000000000055,,1
124,3.5984850952148437,-2.8802245971679685,-6.536170532226562,90.93893129770993,-100.08396946564885,-86.79389312977099,25.690000000000055,,1
125,-8.461108666992187,-1.3814543579101561,8.185775476074218,47.64885496183206,-55.152671755725194,-43.58015267175573,25.690000000000055,,1
126,0.11252747802734374,2.1787235107421874,15.394716674804686,-66.95419847328245,-3.9236641221374047,-16.786259541984734,25.690000000000055,,1
127,3.517082238769531,1.3814543579101561,8.9255837890625,-55.06870229007634,-39.20610687022901,-34.93129770992366,25.590000000000032,,1
128,-5.781997009277344,-8.851363537597656,5.849034655761718,52.19847328244275,-109.19083969465649,-49.87786259541985,25.590000000000032,,1
129,-8.693346228027343,0.6560112548828124,-1.9393033447265624,23.625954198473284,-43.595419847328245,-33.6412213740458,25.590000000000032,,1
130,-6.0142345703124995,-8.9255837890625,9.823409411621093,30.84732824427481,-87.4885496183206,-39.93893129770992,25.590000000000032,,1
131,3.7038299682617186,-10.309432348632813,19.61270144958496,2.0610687022900764,-12.618320610687023,-3.0839694656488548,25.590000000000032,,1
132,2.2194249389648437,-9.172186560058593,12.962207788085937,2.480916030534351,-9.65648854961832,16.916030534351144,25.590000000000032,,1
133,-1.7477672119140624,-11.451466540527344,12.696451403808593,3.717557251908397,26.236641221374047,-1.0076335877862594,25.590000000000032,,1
134,0.2537853759765625,-4.192247106933594,11.118672509765624,-18.374045801526716,62.79389312977099,18.870229007633586,25.590000000000032,,1
135,8.537723120117187,-8.997409838867187,9.131485131835937,-21.03053435114504,74.74045801526718,31.885496183206108,25.590000000000032,,1
136,-6.102820031738281,-12.102689392089843,15.557522387695311,-72.2442748091603,56.74809160305343,56.48091603053435,25.590000000000032,,1
137,-2.1930887207031247,-10.627861169433594,11.324573852539062,-37.74809160305343,35.93893129770992,13.80916030534351,25.310000000000002,,1
138,5.485116003417969,-12.442666027832031,4.678270043945313,-13.679389312977099,46.6793893129771,42.94656488549618,25.310000000000002,,1
139,-3.27526787109375,-5.760449194335937,5.2816088623046875,19.129770992366414,-63.099236641221374,-5.114503816793893,25.310000000000002,,1
140,-2.655169641113281,-9.49300958251953,5.303156677246093,20.259541984732824,-55.083969465648856,-1.0305343511450382,25.310000000000002,,1
141,-0.30885201416015623,-15.86398020019531,2.1260510742187497,25.786259541984734,9.740458015267176,27.34351145038168,25.310000000000002,,1
142,3.9719805541992184,-12.313379138183594,12.126631408691406,-10.618320610687023,-9.351145038167939,10.946564885496183,25.310000000000002,,1
143,-7.029376074218749,-8.24802471923828,12.428300817871094,142.22137404580153,-170.2824427480916,-107.58015267175573,25.310000000000002,,1
144,-3.478775012207031,-9.176974963378905,5.363011718749999,44.725190839694655,-103.98473282442748,-27.213740458015266,25.310000000000002,67.55684696358493,1
145,2.839523168945312,-9.064447485351561,3.912125512695312,50.89312977099237,-54.465648854961835,-8.641221374045802,25.310000000000002,,1
146,1.5466542724609373,-9.227253198242186,14.051569543457031,22.27480916030534,-57.88549618320611,11.106870229007633,25.49000000000001,,1
147,-1.5083470458984374,-7.831433630371094,8.542511523437499,25.267175572519083,-49.17557251908397,-8.587786259541986,25.49000000000001,,1
148,-1.1731588134765625,-7.5345526245117185,6.586448767089843,43.595419847328245,-77.2824427480916,-27.732824427480917,25.49000000000001,,1
149,-5.240907434082031,-8.619125976562499,5.664681127929687,53.587786259541986,-87.7175572519084,7.519083969465649,25.49000000000001,,1
150,-0.9888052856445312,-6.931213806152344,7.079654309082031,0.3816793893129771,-60.725190839694655,-15.854961832061068,25.49000000000001,,1
151,-2.7365724975585937,-6.131550451660156,14.080299963378906,41.69465648854962,-99.5114503816794,-44.16030534351145,25.49000000000001,,1
152,-0.7015010864257812,-12.097900988769531,3.3016040893554686,56.33587786259542,-63.63358778625954,-24.81679389312977,25.49000000000001,,1
153,-1.9201497314453124,-0.8379705810546875,9.469067565917967,-8.50381679389313,35.06870229007634,14.770992366412214,25.49000000000001,,1
154,-0.7158662963867187,-5.844246252441406,16.223110449218748,-8.900763358778626,43.274809160305345,15.541984732824428,25.49000000000001,,1
155,1.35990654296875,-10.685322009277343,12.820949890136719,-16.595419847328245,44.01526717557252,20.19083969465649,25.750000000000057,,1
156,-4.7022120605468745,-6.078878015136718,8.544905725097657,1.3969465648854962,9.885496183206106,9.458015267175572,25.750000000000057,,1
157,-1.9393033447265624,-8.152256652832031,8.698134631347656,-9.633587786259541,-1.4122137404580153,-1.2366412213740459,25.750000000000057,,1
158,-0.41419688720703124,-3.835511059570312,0.7805097412109374,-26.053435114503817,30.15267175572519,0.6793893129770993,25.750000000000057,,1
159,3.84987626953125,2.655169641113281,0.05746083984375,-30.786259541984734,59.70229007633588,0.366412213740458,25.750000000000057,,1
160,0.9983820922851562,-1.8124106567382812,10.644620581054687,-37.48854961832061,32.74045801526717,16.908396946564885,25.750000000000057,,1
161,-3.8187516479492185,-1.618480322265625,11.982979309082031,10.236641221374045,-38.48091603053435,-16.427480916030536,25.750000000000057,,1
162,-9.090783703613281,-6.885723974609375,-2.1619640991210938,62.06870229007634,-113.6793893129771,-79.0381679389313,25.750000000000057,,1
163,-4.537012145996093,-1.1228805786132812,6.402095239257812,19.068702290076335,-92.74045801526718,-30.419847328244273,25.750000000000057,,1
164,-3.881000891113281,-5.949591125488281,7.228094812011718,2.900763358778626,-73.67175572519083,-18.33587786259542,25.750000000000057,,1
165,1.3646949462890625,-1.9488801513671874,3.1507693847656246,30.748091603053435,-50.083969465648856,-30.755725190839694,25.610000000000014,,1
166,-0.9337386474609375,-8.097190014648437,4.355052819824219,56.48091603053435,-81.3206106870229,-34.55725190839695,25.610000000000014,,1
167,3.375824340820312,-6.928819604492187,2.2960393920898436,39.93129770992366,-7.083969465648855,-28.022900763358777,25.610000000000014,,1
168,2.8802245971679685,-5.185840795898438,7.517793212890624,11.259541984732824,-32.152671755725194,-21.068702290076335,25.610000000000014,,1
169,-9.861716638183593,-4.328716601562499,7.529764221191406,31.15267175572519,-104.29770992366412,-57.70229007633588,25.610000000000014,,1
170,-3.42849677734375,-2.1691467041015624,9.967061511230469,-18.977099236641223,-8.625954198473282,-12.106870229007633,25.610000000000014,,1
171,3.5098996337890624,2.094926452636719,10.091559997558592,-31.12213740458015,52.12213740458015,14.549618320610687,25.610000000000014,,1
172,3.5410242553710933,0.9552864624023437,11.54244620361328,-44.16793893129771,68.90839694656489,34.93893129770992,25.610000000000014,,1
173,0.45968671875,-1.886630908203125,11.173739147949219,-10.84732824427481,32.87786259541985,30.106870229007633,25.610000000000014,,1
174,0.9744400756835937,-4.5585599609375,12.406753002929687,-23.519083969465647,4.236641221374046,36.18320610687023,25.55000000000001,,1
175,-1.898601916503906,-1.2761094848632812,11.233594189453123,-1.7938931297709924,-11.15267175572519,19.206106870229007,25.55000000000001,,1
176,2.480392919921875,-1.5251064575195312,8.808267907714843,-57.89312977099237,118.35114503816794,91.77099236641222,25.55000000000001,,1
177,12.593500732421875,-3.1771056030273437,6.58884296875,-85.12977099236642,109.93893129770993,46.51145038167939,25.55000000000001,,1
178,-4.450820886230469,3.5721488769531247,9.746794958496093,17.17557251908397,-9.702290076335878,-6.763358778625954,25.55000000000001,,1
179,-0.6105214233398437,-2.3511060302734372,2.5043349365234375,24.213740458015266,-30.137404580152673,-24.389312977099237,25.55000000000001,,1
180,0.011971008300781249,-10.244788903808594,4.290409374999999,42.11450381679389,-57.74809160305343,-15.801526717557252,25.55000000000001,,1
181,-0.05985504150390625,-10.019733947753906,-0.09337386474609374,60.36641221374046,-64.9618320610687,-26.328244274809162,25.55000000000001,,1
182,5.128379956054687,-13.110648291015623,13.280636608886718,-21.450381679389313,-7.206106870229007,32.43511450381679,25.55000000000001,,1
183,5.250484240722656,-15.133748693847656,15.974113476562499,0.6030534351145038,23.9618320610687,14.389312977099237,25.55000000000001,,1
184,-0.679953271484375,-7.031770275878906,15.670049865722655,-35.74045801526717,3.969465648854962,18.64885496183206,25.930000000000007,,1
185,-2.4349030883789062,-0.8379705810546875,11.85608662109375,-28.87786259541985,13.427480916030534,4.076335877862595,25.930000000000007,,1
186,-1.5658078857421873,-0.07900865478515624,7.302315063476562,35.099236641221374,-15.938931297709924,-32.50381679389313,25.930000000000007,,1
187,-5.135562561035156,-1.5969325073242187,10.263942517089843,28.290076335877863,-20.19083969465649,-18.282442748091604,25.930000000000007,,1
188,7.572859851074218,4.390965844726562,0.16041151123046873,-46.85496183206107,119.6412213740458,63.89312977099237,25.930000000000007,,1
189,-1.8602946899414061,6.76122548828125,4.900930798339844,-44.7557251908397,40.23664122137404,34.79389312977099,25.930000000000007,,1
190,-2.5857377929687497,-0.46208092041015625,16.591817504882812,-14.061068702290076,2.854961832061069,39.14503816793893,25.930000000000007,,1
191,-0.5434837768554687,-6.1267620483398435,10.39322940673828,-42.68702290076336,35.83969465648855,48.80152671755725,25.930000000000007,,1
192,-4.388571643066406,-3.2704794677734372,13.393164086914062,-8.366412213740459,11.374045801526718,19.748091603053435,25.930000000000007,,1
193,0.0143652099609375,-3.6391865234374996,6.603208178710937,-15.099236641221374,49.83206106870229,20.068702290076335,25.470000000000027,,1
194,0.8188169677734375,3.902548706054687,1.4987702392578124,-25.740458015267176,57.404580152671755,6.694656488549619,25.470000000000027,,1
195,6.035782385253906,-3.4907460205078125,-0.1149216796875,-75.22137404580153,149.70229007633588,60.29007633587786,25.470000000000027,,1
196,10.924742175292968,5.6407391113281244,4.42448466796875,-40.152671755725194,52.38167938931298,8.221374045801527,25.470000000000027,,1
197,0.8882488159179687,-6.8210805297851556,11.97100830078125,37.961832061068705,-73.08396946564885,-29.14503816793893,25.470000000000027,,1
198,-1.917755529785156,-12.150573425292968,15.32229207458496,67.8473282442748,-136.4351145038168,-37.9236641221374,25.470000000000027,,1
199,0.8164227661132812,-10.359710583496094,16.359579943847656,-3.1374045801526718,-41.12977099236641,4.122137404580153,25.470000000000027,,1
200,1.4030021728515625,0.0,14.68363878173828,13.366412213740459,-3.931297709923664,-10.022900763358779,25.470000000000027,,1
201,3.114856359863281,4.04141240234375,4.237736938476562,-85.12213740458016,164.55725190839695,20.47328244274809,25.470000000000027,,1
202,2.767697119140625,3.1699229980468746,15.751452722167969,-123.22900763358778,97.3969465648855,36.458015267175576,25.470000000000027,66.62924007822095,1
203,1.5945383056640625,4.647145422363281,15.069105249023437,-33.29770992366412,41.76335877862596,15.961832061068701,25.730000000000018,66.62924007822095,1
204,-3.912125512695312,-0.38786066894531246,9.701305126953125,2.0,8.450381679389313,-14.282442748091603,25.730000000000018,,1
205,-0.5698199951171875,-3.5793314819335937,14.695609790039061,1.6259541984732824,-3.7709923664122136,-1.1221374045801527,25.730000000000018,,1
206,-1.2401964599609374,-11.168950744628905,19.498378320312497,-17.106870229007633,-43.3206106870229,24.16030534351145,25.730000000000018,,1
207,2.365471240234375,-8.978256225585938,12.406753002929687,-28.595419847328245,19.16793893129771,26.80916030534351,25.730000000000018,,1
208,4.103661645507812,-8.192958081054687,7.867346655273437,-18.435114503816795,24.16793893129771,25.51145038167939,25.730000000000018,,1
209,1.1923124267578125,-10.577582934570312,6.797138513183594,20.27480916030534,-55.66412213740458,15.15267175572519,25.730000000000018,,1
210,1.9800047729492187,-12.23915888671875,11.839327209472655,50.80916030534351,-77.89312977099236,-15.534351145038167,25.730000000000018,,1
211,-2.3247698120117186,-8.051700183105469,9.753977563476562,27.786259541984734,-92.19847328244275,-23.00763358778626,25.730000000000018,,1
212,10.39322940673828,-11.233594189453123,6.4834980957031245,20.0381679389313,-7.099236641221374,1.6412213740458015,25.970000000000027,,1
213,8.743624462890624,-7.077260107421875,15.952565661621092,-43.76335877862596,-25.83969465648855,24.374045801526716,25.970000000000027,,1
214,0.9504980590820312,-4.541800549316406,15.471331127929687,-36.725190839694655,15.412213740458014,17.48854961832061,25.970000000000027,,1
215,-0.1580173095703125,-8.350975390624999,16.63251893310547,35.61832061068702,-17.549618320610687,-8.664122137404581,25.970000000000027,,1
216,0.7996633544921875,-7.237671618652343,17.041927416992188,-0.8320610687022901,-28.17557251908397,3.618320610687023,25.970000000000027,,1
217,7.4770917846679685,-9.143456140136719,17.504008337402343,0.44274809160305345,7.030534351145038,17.427480916030536,25.970000000000027,,1
218,1.6998831787109374,-10.230423693847655,9.5384994140625,20.389312977099237,-7.633587786259542,0.6870229007633588,25.970000000000027,,1
219,-1.0175357055664063,-8.470685473632813,7.522581616210937,7.206106870229007,-11.061068702290076,7.137404580152672,25.970000000000027,,1
220,8.623914379882812,-3.641580725097656,8.204929089355469,-22.732824427480917,29.358778625954198,32.595419847328245,25.970000000000027,,1
221,6.011840368652344,-8.66940421142578,8.032546569824218,-1.6641221374045803,-1.0687022900763359,12.763358778625955,25.970000000000027,,1
222,-2.849099975585937,-11.678915698242188,12.950236779785156,44.82442748091603,-41.38931297709924,-16.931297709923665,25.850000000000023,,1
223,-3.095702746582031,-8.47786807861328,8.75320126953125,48.099236641221374,-50.57251908396947,-31.14503816793893,25.850000000000023,,1
224,0.6200982299804687,-6.682216833496093,7.259219433593749,28.908396946564885,-9.488549618320612,-35.10687022900763,25.850000000000023,,1
225,0.7613561279296874,-0.24899697265624998,7.436390356445312,-8.664122137404581,6.0534351145038165,-9.83969465648855,25.850000000000023,,1
226,0.03591302490234375,1.608903515625,7.017405065917968,-21.625954198473284,29.206106870229007,10.305343511450381,25.850000000000023,,1
227,3.9360675292968748,2.5426421630859375,7.917624890136718,-16.541984732824428,16.053435114503817,-3.2977099236641223,25.850000000000023,,1
228,-5.279214660644531,-0.833182177734375,12.627019555664061,2.7709923664122136,-7.557251908396947,-11.412213740458014,25.850000000000023,,1
229,5.513846423339843,2.123656872558594,9.330203869628905,-38.80916030534351,56.76335877862596,12.511450381679388,25.850000000000023,,1
230,1.9800047729492187,0.5315127685546874,9.514557397460937,-33.038167938931295,36.045801526717554,13.82442748091603,25.850000000000023,,1
231,0.9911994873046874,2.3582886352539063,2.8706477905273435,49.458015267175576,-15.068702290076336,-13.770992366412214,25.910000000000025,,1
232,-13.965378283691406,0.39983167724609375,8.28633194580078,13.13740458015267,-37.37404580152672,-17.587786259541986,25.910000000000025,,1
233,2.9089550170898435,-1.4604630126953124,2.817975354003906,-1.6870229007633588,23.366412213740457,-18.938931297709924,25.910000000000025,,1
234,-5.681440539550781,-7.56567724609375,8.09479581298828,56.458015267175576,-56.19847328244275,-40.13740458015267,25.910000000000025,,1
235,-4.489128112792969,-14.753070629882812,14.051569543457031,46.85496183206107,-70.0,-44.69465648854962,25.910000000000025,,1
236,-12.753912243652342,-17.05150422363281,10.13226142578125,55.152671755725194,-54.732824427480914,-14.595419847328245,25.910000000000025,,1
237,-0.55545478515625,-5.4779333984375,8.923189587402343,33.16793893129771,-49.82442748091603,-31.198473282442748,25.910000000000025,,1
238,6.299144567871093,-5.858611462402344,4.967968444824218,-13.679389312977099,-13.038167938931299,-3.122137404580153,25.910000000000025,,1
239,7.364564306640625,-11.269507214355468,14.240711474609375,3.2748091603053435,-31.46564885496183,8.625954198473282,25.910000000000025,,1
240,-7.44357296142578,-11.118672509765624,19.61270144958496,49.725190839694655,-35.908396946564885,13.557251908396946,25.910000000000025,,1
241,13.409923498535155,-6.955155822753905,8.559270935058594,-58.9236641221374,35.49618320610687,8.641221374045802,25.690000000000055,,1
242,5.985504150390625,-1.3646949462890625,15.327679028320311,-15.625954198473282,18.763358778625953,19.16793893129771,25.690000000000055,,1
243,13.524845178222655,5.906495495605468,-0.689530078125,-70.98473282442748,108.52671755725191,26.068702290076335,25.690000000000055,,1
244,9.41639512939453,3.086125939941406,10.596736547851561,-51.778625954198475,40.99236641221374,-1.083969465648855,25.690000000000055,,1
245,-9.047688073730468,-2.3774422485351563,10.73799444580078,33.778625954198475,-45.221374045801525,-9.595419847328245,25.690000000000055,,1
246,-18.109741357421875,-10.687716210937499,7.52737001953125,118.70992366412214,-85.12213740458016,-41.55725190839695,25.690000000000055,,1
247,-5.058948107910156,-12.770671655273437,15.820884570312499,56.770992366412216,-91.12213740458016,-15.526717557251908,25.690000000000055,,1
248,7.625532287597656,-5.327098693847656,9.789890588378906,-16.076335877862597,9.610687022900763,12.442748091603054,25.690000000000055,,1
249,17.824831359863282,-0.93852705078125,10.714052429199219,-105.1145038167939,57.25190839694657,64.38167938931298,25.690000000000055,,1
250,8.231265307617187,6.41646044921875,10.943895788574219,-40.12977099236641,74.83206106870229,13.763358778625955,25.610000000000014,,1
251,11.037269653320312,5.793968017578124,10.690110412597656,-6.1603053435114505,87.86259541984732,-21.31297709923664,25.610000000000014,,1
252,-0.8044517578125,6.619967590332031,10.120290417480469,9.534351145038167,10.091603053435115,-21.435114503816795,25.610000000000014,,1
253,-11.77228956298828,2.588131994628906,5.868188269042968,33.87022900763359,-64.57251908396947,-26.732824427480917,25.610000000000014,,1
254,0.13407529296874998,11.037269653320312,-1.8267758666992187,14.206106870229007,-17.27480916030534,-31.954198473282442,25.610000000000014,,1
255,-4.204218115234375,-6.775590698242187,7.44357296142578,-6.8320610687022905,10.885496183206106,3.572519083969466,25.610000000000014,,1
256,-3.375824340820312,-10.216058483886718,17.290924389648435,20.893129770992367,-41.80152671755725,-5.961832061068702,25.610000000000014,,1
257,4.65432802734375,-6.3709706176757805,10.615890161132812,14.259541984732824,-65.6412213740458,-35.74809160305343,25.610000000000014,,1
258,-3.095702746582031,-19.488801513671874,14.025233325195313,28.03053435114504,-22.0,1.1297709923664123,25.610000000000014,,1
259,-3.7325603881835936,-11.882422839355469,11.84890401611328,16.52671755725191,-47.45038167938932,-16.870229007633586,25.610000000000014,,1
260,1.189918225097656,-4.572925170898437,11.17852755126953,21.572519083969464,-64.09160305343511,-20.6793893129771,25.410000000000025,,1
261,-19.6133,-14.42267080078125,9.220070593261719,93.76335877862596,-30.564885496183205,-0.5877862595419847,25.410000000000025,67.51418314805659,1
262,2.8850130004882812,-6.438008264160156,13.615824841308592,4.748091603053435,-71.6030534351145,0.16793893129770993,25.410000000000025,,1
263,6.212953308105468,-9.6151138671875,13.730746520996092,1.6488549618320612,-12.145038167938932,16.69465648854962,25.410000000000025,,1
264,14.094665173339843,-12.023680737304687,14.085088366699217,55.2442748091603,28.83969465648855,8.954198473282442,25.410000000000025,,1
265,-4.6830584472656245,-11.884817041015625,19.608511596679687,-91.40458015267176,-13.427480916030534,20.99236641221374,25.410000000000025,,1
266,6.6319385986328125,0.411802685546875,19.469647900390623,-11.725190839694656,3.33587786259542,4.755725190839694,25.410000000000025,,1
267,1.0031704956054688,-2.1021090576171875,9.974244116210937,-33.595419847328245,78.38167938931298,43.465648854961835,25.410000000000025,,1
268,-2.6791116577148437,2.925714428710937,4.680664245605469,-69.03053435114504,38.404580152671755,29.38167938931298,25.410000000000025,,1
269,1.180341418457031,1.62805712890625,13.721169714355469,-17.045801526717558,-43.587786259541986,6.152671755725191,25.910000000000025,,1
270,-2.8730419921875,-1.3455413330078123,10.601524951171875,11.916030534351146,22.16793893129771,5.083969465648855,25.910000000000025,,1
271,4.163516687011718,-0.5961562133789062,3.976768957519531,-27.755725190839694,58.12977099236641,23.717557251908396,25.910000000000025,,1
272,-1.4891934326171874,2.1835119140624997,11.745953344726562,-13.641221374045802,-11.526717557251908,22.786259541984734,25.910000000000025,,1
273,1.714248388671875,0.411802685546875,14.305354919433594,3.854961832061069,22.778625954198475,1.7938931297709924,25.910000000000025,,1
274,2.6958710693359373,-8.207323291015625,15.974113476562499,25.81679389312977,-15.908396946564885,-20.541984732824428,25.910000000000025,,1
275,1.0510545288085937,-10.395623608398436,8.013392956542969,22.80916030534351,-25.732824427480917,-3.8396946564885495,25.910000000000025,,1
276,2.300827795410156,-8.192958081054687,13.965378283691406,16.69465648854962,-33.74809160305343,-9.083969465648854,25.910000000000025,,1
277,-0.34237083740234375,-6.066907006835937,6.785167504882812,11.068702290076336,-19.770992366412212,-5.9465648854961835,25.910000000000025,,1
278,2.147598889160156,-8.611943371582031,10.599130749511717,3.4198473282442747,-66.91603053435115,-15.48091603053435,25.910000000000025,,1
279,-0.5315127685546874,-10.20169327392578,16.931794140624998,43.083969465648856,-40.54961832061068,-29.099236641221374,25.750000000000057,,1
280,-11.235988391113281,-9.765948571777344,11.595118640136718,12.16793893129771,-57.70992366412214,-15.916030534351146,25.750000000000057,,1
281,-0.689530078125,-8.736441857910156,11.008539233398437,17.541984732824428,-50.213740458015266,-3.404580152671756,25.750000000000057,,1
282,4.534617944335937,-9.279925634765624,8.968679418945312,14.732824427480915,10.488549618320612,-8.458015267175572,25.750000000000057,,1
283,6.349422802734375,-1.0462661254882812,18.71068597412109,-106.2442748091603,58.099236641221374,40.038167938931295,25.750000000000057,,1
284,14.30056651611328,-2.9951462768554684,2.1930887207031247,-15.083969465648854,23.0,17.259541984732824,25.750000000000057,,1
285,0.181959326171875,-0.6584054565429687,4.405331054687499,8.854961832061068,31.65648854961832,-0.732824427480916,25.750000000000057,,1
286,-2.35589443359375,1.446097802734375,13.309367028808593,-25.770992366412212,22.50381679389313,-2.0381679389312977,25.750000000000057,,1
287,2.6240450195312497,2.2074539306640624,10.505756884765624,-10.793893129770993,-3.83206106870229,-6.938931297709924,25.750000000000057,,1
288,0.10295067138671875,-2.6001030029296874,6.636727001953124,-24.267175572519083,36.99236641221374,8.267175572519085,25.810000000000002,,1
289,4.65432802734375,-1.8411410766601561,5.8610056640625,-32.9236641221374,25.328244274809162,0.549618320610687,25.810000000000002,,1
290,-7.618349682617187,-8.748412866210938,19.61270144958496,56.969465648854964,-118.83206106870229,-36.63358778625954,25.810000000000002,,1
291,8.743624462890624,-12.054805358886718,18.58379328613281,-19.236641221374047,-5.030534351145038,1.5267175572519085,25.810000000000002,,1
292,6.964732629394531,-5.616797094726562,7.086836914062499,1.3206106870229009,0.45038167938931295,-4.33587786259542,25.810000000000002,,1
293,0.26815058593749996,-8.604760766601562,12.069170568847655,39.74045801526717,-51.74045801526717,-26.47328244274809,25.810000000000002,,1
294,-6.986280444335937,-9.689334118652344,11.822567797851562,39.63358778625954,-38.213740458015266,-9.351145038167939,25.810000000000002,,1
295,-1.199495031738281,-9.045293872070312,9.560047229003906,26.946564885496183,-34.29007633587786,-11.0,25.810000000000002,,1
296,4.4819455078125,-10.694898815917968,11.276689819335937,62.083969465648856,-64.51908396946565,-3.099236641221374,25.810000000000002,,1
297,-4.46279189453125,-7.8553756469726554,7.4699091796875,32.61832061068702,-14.725190839694656,7.152671755725191,25.610000000000014,,1
298,6.68461103515625,-8.154650854492187,14.820108276367186,-66.20610687022901,19.72519083969466,31.740458015267176,25.610000000000014,,1
299,0.34715924072265625,-0.2609679809570312,9.351751684570312,-68.79389312977099,45.11450381679389,21.358778625954198,25.610000000000014,,1
300,17.611747412109374,-2.085349645996094,7.192181787109375,-58.274809160305345,99.74045801526718,3.1068702290076335,25.610000000000014,,1
301,-2.252943762207031,-3.2154128295898436,9.787496386718749,-24.221374045801525,61.732824427480914,-2.9389312977099236,25.610000000000014,,1
302,8.875305554199219,-1.37906015625,3.5242648437499997,-68.46564885496183,21.65648854961832,1.1603053435114503,25.610000000000014,,1
303,-8.705317236328124,-15.322890625,19.61270144958496,85.96946564885496,-74.93129770992367,-9.244274809160306,25.610000000000014,,1
304,-3.277662072753906,-11.257536206054686,19.59893479003906,106.07633587786259,-34.76335877862596,-17.83969465648855,25.610000000000014,,1
305,3.0621839233398433,-10.366893188476562,18.160019592285156,35.19083969465649,-31.80916030534351,-2.450381679389313,25.610000000000014,,1
306,9.567229833984374,-7.170633972167968,9.993397729492187,6.0,44.7557251908397,3.366412213740458,25.610000000000014,,1
307,2.9376854370117185,6.868964562988281,5.559336254882812,17.114503816793892,-11.13740458015267,-1.9389312977099236,25.49000000000001,,1
308,-5.647921716308593,-5.185840795898438,-1.2042834350585936,-98.35114503816794,91.79389312977099,11.358778625954198,25.49000000000001,,1
309,6.586448767089843,5.209782812499999,10.453084448242187,31.81679389312977,-52.47328244274809,-45.02290076335878,25.49000000000001,,1
310,-12.966996191406249,5.827486840820312,9.988609326171874,75.22137404580153,-104.12213740458016,-35.50381679389313,25.49000000000001,,1
311,-1.0103531005859374,-12.43069501953125,10.204087475585936,43.85496183206107,-36.30534351145038,-16.083969465648856,25.49000000000001,,1
312,-14.113818786621094,-14.784195251464842,12.715605017089842,57.17557251908397,-76.82442748091603,-20.282442748091604,25.49000000000001,,1
313,-6.3901242309570305,-14.34605634765625,10.747571252441405,30.916030534351144,-77.04580152671755,-2.282442748091603,25.49000000000001,,1
314,8.358157995605469,-10.809820495605468,14.41548819580078,43.61068702290076,-20.061068702290076,26.48854961832061,25.49000000000001,,1
315,8.992621435546875,-10.309432348632813,19.61270144958496,88.49618320610686,-2.0381679389312977,-17.297709923664122,25.49000000000001,,1
316,7.163451367187499,-0.9983820922851562,8.001421948242188,-48.11450381679389,43.0,9.572519083969466,25.55000000000001,,1
317,9.124302526855468,11.85608662109375,9.035717065429687,-23.46564885496183,64.61832061068702,-13.580152671755725,25.55000000000001,,1
318,9.215282189941405,8.015787158203125,-5.990292553710937,19.27480916030534,56.847328244274806,-29.702290076335878,25.55000000000001,68.29443721825906,1
319,-1.0773907470703123,-0.33039982910156246,12.076353173828124,19.34351145038168,-92.42748091603053,-17.908396946564885,25.55000000000001,,1
320,-13.271059802246093,-11.204863769531249,15.696386083984374,15.412213740458014,-22.69465648854962,19.099236641221374,25.55000000000001,,1
321,-2.3343466186523436,-12.643778967285156,19.61270144958496,87.23664122137404,-46.05343511450382,-22.015267175572518,25.55000000000001,,1
322,-3.5793314819335937,-7.105990527343749,19.61270144958496,7.129770992366412,-97.0381679389313,-3.7251908396946565,25.55000000000001,,1
323,-5.588066674804687,-11.860875024414062,13.757082739257811,62.87022900763359,-14.923664122137405,16.16030534351145,25.55000000000001,,1
324,0.7972691528320313,-10.527304699707031,5.7508723876953125,43.86259541984733,-10.687022900763358,-4.885496183206107,25.55000000000001,,1
325,-0.45489831542968745,-3.986345764160156,9.277531433105468,1.366412213740458,-63.50381679389313,-8.381679389312977,25.55000000000001,,1
326,1.8722656982421875,-6.830657336425781,8.75320126953125,13.091603053435115,-36.93129770992366,12.045801526717558,25.810000000000002,,1
327,0.7972691528320313,-8.513781103515624,7.254431030273437,-3.984732824427481,21.442748091603054,12.526717557251908,25.810000000000002,,1
328,5.341463903808593,-8.190563879394531,13.374010473632811,4.633587786259542,-84.0,-0.366412213740458,25.810000000000002,,1
329,5.2648494506835934,-11.858480822753906,9.258377819824219,45.42748091603053,-61.54961832061068,7.732824427480916,25.810000000000002,,1
330,-12.97178459472656,-12.188880651855468,14.875174914550781,102.98473282442748,-74.65648854961832,-32.81679389312977,25.810000000000002,,1
331,-2.463633508300781,-9.418789331054686,12.27028350830078,55.274809160305345,-93.09923664122137,-36.97709923664122,25.810000000000002,,1
332,10.235212097167969,-11.604695446777344,7.678204724121093,6.473282442748092,35.12213740458015,8.061068702290076,25.810000000000002,,1
333,10.675745202636719,-9.358934289550781,12.9095353515625,-37.80152671755725,4.488549618320611,26.564885496183205,25.810000000000002,,1
334,4.8650177734375,-8.037334973144532,10.117896215820313,27.908396946564885,25.87786259541985,16.709923664122137,25.810000000000002,,1
335,8.772354882812499,4.551377355957031,4.074931225585937,-15.557251908396946,77.23664122137404,22.015267175572518,25.810000000000002,,1
336,3.83072265625,2.2385785522460937,5.559336254882812,20.236641221374047,-27.671755725190838,7.732824427480916,25.810000000000002,,1
337,-6.112396838378906,0.3902548706054687,11.621454858398437,-3.816793893129771,6.213740458015267,4.0534351145038165,25.810000000000002,,1
338,0.44532150878906246,0.26336218261718747,16.08185255126953,-46.56488549618321,42.16030534351145,17.755725190839694,25.810000000000002,,1
339,1.9632453613281249,1.8602946899414061,12.471396447753905,-36.847328244274806,35.3206106870229,14.007633587786259,25.810000000000002,,1
340,4.903325,2.0350714111328125,13.893552233886718,-34.70992366412214,9.49618320610687,41.94656488549618,25.810000000000002,,1
341,10.275913525390624,-7.848193041992187,2.0374656127929685,2.816793893129771,74.22137404580153,25.564885496183205,25.810000000000002,,1
342,-4.417302062988281,-6.131550451660156,12.801796276855468,-18.30534351145038,1.9923664122137406,36.0,25.810000000000002,,1
343,-3.1699229980468746,-9.406818322753905,11.609483850097655,-32.908396946564885,-24.72519083969466,17.946564885496183,25.810000000000002,,1
344,-0.5506663818359374,-9.610325463867188,8.528146313476562,36.25190839694657,-61.70229007633588,4.236641221374046,25.810000000000002,,1
345,1.5322890624999999,-9.054870678710937,6.56968935546875,18.0,-33.88549618320611,1.702290076335878,25.910000000000025,,1
346,5.054159704589844,-6.442796667480469,7.117961535644531,-13.022900763358779,-8.129770992366412,2.7480916030534353,25.910000000000025,,1
347,2.482787121582031,-7.338228088378906,14.666879370117186,28.793893129770993,-62.01526717557252,-33.603053435114504,25.910000000000025,,1
348,-9.706093530273437,-12.837709301757812,3.9983167724609374,115.26717557251908,-91.53435114503817,-34.51145038167939,25.910000000000025,,1
349,-1.3215993164062498,-9.840168823242188,0.8762778076171874,48.79389312977099,-30.48854961832061,-21.35114503816794,25.910000000000025,,1
350,0.5051765502929687,-7.1778165771484375,6.811503723144531,32.38931297709924,-38.51145038167939,-12.992366412213741,25.910000000000025,,1
351,-4.311957189941406,-14.465766430664061,19.61270144958496,32.16030534351145,-73.59541984732824,-18.00763358778626,25.910000000000025,,1
352,5.1140147460937495,-9.330203869628905,17.59498800048828,37.48854961832061,-43.48854961832061,-6.114503816793893,25.910000000000025,,1
353,2.1811177124023438,-2.6886884643554687,10.517727893066406,-13.908396946564885,23.045801526717558,12.541984732824428,25.910000000000025,,1
354,5.68862314453125,-3.2513258544921873,13.584700219726562,-116.2442748091603,83.55725190839695,34.595419847328245,25.750000000000057,,1
355,14.693215588378905,3.6367923217773437,0.9337386474609375,-73.29770992366412,89.66412213740458,20.358778625954198,25.750000000000057,,1
356,13.306972827148437,1.7334020019531249,0.8499415893554687,-67.53435114503817,91.79389312977099,31.885496183206108,25.750000000000057,,1
357,4.8698061767578125,0.4261678955078125,10.809820495605468,-32.32824427480916,41.099236641221374,10.610687022900763,25.750000000000057,,1
358,0.9959878906249999,0.430956298828125,14.322114331054687,13.603053435114504,-42.099236641221374,-10.19083969465649,25.750000000000057,,1
359,19.536685546875,10.381258398437499,-4.367023828124999,-43.25190839694657,91.01526717557252,-29.33587786259542,25.750000000000057,,1
360,-5.252878442382812,-1.2904746948242187,-2.4205378784179685,30.801526717557252,-33.06106870229008,-14.65648854961832,25.750000000000057,,1
361,-19.6133,-4.266467358398438,-3.6391865234374996,61.083969465648856,-45.25954198473283,-19.129770992366414,25.750000000000057,,1
362,-12.624625354003905,4.50109912109375,-1.608903515625,39.2442748091603,-47.56488549618321,-25.297709923664122,25.750000000000057,,1
363,16.278177087402344,-2.3056161987304686,-0.4213794921875,-10.320610687022901,2.5877862595419847,-14.916030534351146,25.750000000000057,,1
364,-2.5450363647460934,-11.987767712402343,9.715670336914062,36.74045801526717,-68.34351145038168,-8.419847328244275,25.29000000000002,,1
365,9.198522778320312,-13.941436267089843,17.51119094238281,64.79389312977099,-67.50381679389314,23.259541984732824,25.29000000000002,,1
366,-12.722787622070312,-9.449913952636718,14.214375256347655,69.26717557251908,-63.42748091603053,2.3587786259541983,25.29000000000002,,1
367,6.093243225097656,-1.915361328125,12.27028350830078,-45.12977099236641,27.068702290076335,22.30534351145038,25.29000000000002,,1
368,-1.0582371337890624,-3.2824504760742186,7.096413720703125,-27.587786259541986,51.82442748091603,13.86259541984733,25.29000000000002,,1
369,14.470554833984375,-3.7325603881835936,4.69263525390625,-31.389312977099237,106.77862595419847,-8.389312977099237,25.29000000000002,,1
370,1.6352397338867186,6.112396838378906,8.951920007324219,2.5801526717557253,40.25954198473283,-29.198473282442748,25.29000000000002,,1
371,-3.4069489624023435,-8.796296899414061,8.085219006347655,8.816793893129772,-25.85496183206107,-12.374045801526718,25.29000000000002,,1
372,-5.145139367675781,-17.039533215332032,16.40746397705078,73.0,-79.92366412213741,-34.48091603053435,25.29000000000002,,1
373,-3.825934252929687,-19.6133,19.61270144958496,76.17557251908397,-88.4885496183206,-44.25190839694657,25.53000000000003,,1
374,-0.7230489013671875,-17.41063447265625,15.47611953125,31.00763358778626,-30.068702290076335,-2.366412213740458,25.53000000000003,,1
375,6.026205578613281,-10.754753857421875,12.801796276855468,14.335877862595419,8.083969465648854,13.381679389312977,25.53000000000003,,1
376,7.062894897460937,-2.142810485839844,6.658274816894531,-10.793893129770993,60.282442748091604,-6.1603053435114505,25.53000000000003,68.09200358455524,1
377,6.289567761230469,-6.404489440917969,19.191920507812497,-68.57251908396947,-32.3206106870229,34.32824427480916,25.53000000000003,,1
378,7.563283044433593,6.035782385253906,12.433089221191405,-34.603053435114504,54.74045801526717,28.022900763358777,25.53000000000003,,1
379,14.049175341796873,-5.082890124511718,11.360486877441405,-105.38167938931298,118.5114503816794,41.458015267175576,25.53000000000003,,1
380,18.29648908691406,-3.670311145019531,3.835511059570312,-98.77862595419847,108.63358778625954,35.05343511450382,25.53000000000003,,1
381,13.869610217285155,-1.3407529296874998,12.105083593749999,-97.80916030534351,63.17557251908397,34.954198473282446,25.53000000000003,,1
382,-1.8076222534179687,-1.4221557861328125,8.985438830566405,3.282442748091603,-5.8396946564885495,3.9618320610687023,25.53000000000003,,1
383,-7.082048510742187,-11.482591162109374,18.406622363281247,31.450381679389313,-62.54961832061068,-3.6030534351145036,25.55000000000001,,1
384,-12.449848632812499,-10.733206042480468,10.177751257324218,60.396946564885496,-84.81679389312977,-19.137404580152673,25.55000000000001,,1
385,0.8786720092773437,-8.224082702636718,10.232817895507813,2.1374045801526718,-49.52671755725191,16.16030534351145,25.55000000000001,,1
386,1.2114660400390624,-10.36210478515625,8.628702783203124,-35.595419847328245,-28.870229007633586,18.96946564885496,25.55000000000001,,1
387,3.0837317382812497,-9.952696301269532,11.97100830078125,-25.64885496183206,6.679389312977099,14.32824427480916,25.55000000000001,,1
388,7.259219433593749,-11.202469567871093,12.876016528320312,-8.900763358778626,9.358778625954198,9.740458015267176,25.55000000000001,,1
389,-0.9744400756835937,-1.618480322265625,11.501744775390625,32.541984732824424,0.45038167938931295,-12.488549618320612,25.55000000000001,,1
390,2.9735984619140625,-3.21780703125,11.688492504882811,27.549618320610687,-8.694656488549619,-11.82442748091603,25.55000000000001,,1
391,8.389282617187499,-1.8722656982421875,8.836998327636719,-11.923664122137405,35.37404580152672,0.3816793893129771,25.55000000000001,,1
392,4.393360046386719,-6.224924316406249,10.374075793457031,36.52671755725191,-18.068702290076335,-11.335877862595419,25.590000000000032,,1
393,1.0079588989257813,-9.794678991699218,17.341202624511716,1.3129770992366412,-19.236641221374047,8.778625954198473,25.590000000000032,,1
394,6.998251452636718,-12.952630981445312,19.61270144958496,13.435114503816793,-3.8091603053435112,20.541984732824428,25.590000000000032,,1
395,3.9624037475585934,-4.560954162597656,11.130643518066405,-14.534351145038167,-1.8854961832061068,21.641221374045802,25.590000000000032,,1
396,3.6918589599609373,-7.105990527343749,8.429984045410155,-24.977099236641223,40.74045801526717,27.68702290076336,25.590000000000032,,1
397,8.269572534179687,-7.4603323730468745,6.4284314575195305,-12.106870229007633,50.99236641221374,27.236641221374047,25.590000000000032,,1
398,7.455543969726562,-3.9647979492187497,5.834669445800781,-77.30534351145039,136.42748091603053,21.938931297709924,25.590000000000032,,1
399,5.228936425781249,7.431601953125,15.145719702148437,-83.77099236641222,105.92366412213741,33.10687022900763,25.590000000000032,,1
400,0.9169792358398436,2.767697119140625,5.8226984375,-21.480916030534353,62.083969465648856,15.358778625954198,25.590000000000032,,1
401,4.438849877929687,4.46279189453125,8.410830432128906,11.49618320610687,-8.274809160305344,-6.259541984732825,25.590000000000032,,1
402,-4.103661645507812,-4.225765930175781,11.37006368408203,4.511450381679389,-9.541984732824428,-10.67175572519084,25.470000000000027,,1
403,-2.961627453613281,-5.054159704589844,9.217676391601563,15.183206106870228,-27.83969465648855,-33.274809160305345,25.470000000000027,,1
404,2.0638018310546875,-4.431667272949219,12.646173168945312,-8.053435114503817,-32.29007633587786,-24.267175572519083,25.470000000000027,,1
405,1.0917559570312498,-8.33182177734375,10.81460889892578,8.549618320610687,-16.00763358778626,-11.213740458015268,25.470000000000027,,1
406,-4.469974499511719,-7.340622290039062,9.60793126220703,19.03053435114504,-39.587786259541986,-15.679389312977099,25.470000000000027,,1
407,1.0893617553710937,-7.9846625366210935,10.618284362792968,32.12213740458015,-41.66412213740458,-13.916030534351146,25.470000000000027,,1
408,4.996698864746094,-5.655104321289063,9.133879333496093,-16.14503816793893,-25.625954198473284,-3.0,25.470000000000027,,1
409,1.649604943847656,-5.348646508789062,10.129867224121092,30.244274809160306,-69.19083969465649,-20.458015267175572,25.470000000000027,,1
410,-5.6958057495117185,-8.904035974121093,19.493589916992185,58.00763358778626,-60.23664122137404,-27.33587786259542,25.470000000000027,,1
411,1.0510545288085937,-6.035782385253906,13.699621899414062,34.030534351145036,-22.412213740458014,-11.763358778625955,25.410000000000025,,1
412,3.5122938354492184,-6.715735656738281,10.979808813476561,-14.801526717557252,1.1526717557251909,10.687022900763358,25.410000000000025,,1
413,9.425971936035156,-13.364433666992186,19.61270144958496,32.37404580152672,-37.083969465648856,-14.511450381679388,25.410000000000025,,1
414,-1.149216796875,-3.210624426269531,9.85692823486328,-20.99236641221374,37.54961832061068,29.068702290076335,25.410000000000025,,1
415,-4.618415002441406,8.712499841308594,4.594472985839843,-43.29007633587786,57.12977099236641,2.236641221374046,25.410000000000025,,1
416,7.187393383789062,-0.29927520751953124,0.19393033447265623,-17.061068702290076,21.587786259541986,-2.213740458015267,25.410000000000025,,1
417,7.208941198730468,-14.034810131835936,12.136208215332031,64.47328244274809,-70.30534351145039,-7.4961832061068705,25.410000000000025,,1
418,7.012616662597656,-8.427589843749999,14.980519787597656,-78.0,23.450381679389313,34.89312977099237,25.410000000000025,,1
419,9.557653027343749,-3.6200329101562496,8.058882788085937,-96.48091603053435,89.89312977099236,50.86259541984733,25.410000000000025,,1
420,-1.438915197753906,6.4092778442382805,5.3199160888671875,-57.717557251908396,69.98473282442748,13.01526717557252,25.29000000000002,,1
421,-2.602497204589844,4.216189123535156,7.285555651855469,27.114503816793892,5.061068702290076,-14.511450381679388,25.29000000000002,,1
422,-18.82800185546875,-6.459556079101562,13.462595935058593,61.13740458015267,-99.55725190839695,-26.702290076335878,25.29000000000002,,1
423,-18.33719051513672,-19.6133,19.61270144958496,70.08396946564885,-163.81679389312978,-39.86259541984733,25.29000000000002,,1
424,-16.94376514892578,-14.705186596679686,6.655880615234374,97.72519083969466,-111.1145038167939,-22.931297709923665,25.29000000000002,,1
425,-6.347028601074219,-13.467384338378906,14.49928525390625,55.770992366412216,-28.366412213740457,-6.259541984732825,25.29000000000002,,1
426,7.788338000488281,1.9847931762695312,7.453149768066406,-11.419847328244275,24.49618320610687,2.6946564885496183,25.29000000000002,,1
427,1.3311761230468748,-1.024718310546875,14.884751721191405,-58.343511450381676,14.488549618320612,33.396946564885496,25.29000000000002,,1
428,8.779537487792968,-0.105344873046875,7.455543969726562,-20.47328244274809,47.88549618320611,-4.343511450381679,25.29000000000002,,1
429,14.389151977539061,5.446808776855469,-5.159504577636718,0.17557251908396945,73.58015267175573,-12.32824427480916,25.29000000000002,,1
430,10.05564697265625,2.398990063476562,-0.6823474731445313,31.793893129770993,-70.63358778625954,-34.282442748091604,25.410000000000025,,1
431,5.511452221679687,-18.44492958984375,8.221688500976562,-20.84732824427481,-12.038167938931299,20.763358778625953,25.410000000000025,,1
432,8.441955053710936,-12.073958972167969,16.103400366210938,37.48091603053435,-35.83969465648855,3.954198473282443,25.410000000000025,,1
433,8.164227661132813,-11.9135474609375,5.106832141113281,1.6106870229007633,21.17557251908397,16.52671755725191,25.410000000000025,,1
434,2.6958710693359373,-4.805162731933594,15.428235498046874,27.03053435114504,32.00763358778626,6.633587786259542,25.410000000000025,67.64882792465083,1
435,10.498574279785156,9.725247143554688,6.828263134765624,-30.419847328244273,81.12213740458016,6.4961832061068705,25.410000000000025,,1
436,9.1554271484375,10.635043774414061,9.828197814941406,21.931297709923665,-52.732824427480914,-29.053435114503817,25.410000000000025,,1
437,4.814739538574218,2.3295582153320313,-6.490680700683593,59.541984732824424,-23.633587786259543,-40.69465648854962,25.410000000000025,,1
438,7.45075556640625,-3.5625720703124997,3.7158009765625,31.022900763358777,-36.282442748091604,-23.81679389312977,25.410000000000025,,1
439,3.0142998901367184,-8.437166650390624,6.035782385253906,-30.30534351145038,-23.17557251908397,9.816793893129772,25.370000000000005,,1
440,7.931990100097655,-10.165780249023436,14.087482568359373,-33.343511450381676,-39.01526717557252,19.954198473282442,25.370000000000005,,1
441,7.484274389648437,-12.126631408691406,15.562310791015625,-23.15267175572519,-49.20610687022901,36.38167938931298,25.370000000000005,,1
442,8.29351455078125,-12.892775939941405,7.050923889160156,-24.80916030534351,-20.31297709923664,33.49618320610687,25.370000000000005,,1
443,3.6655227416992187,-7.7596075805664055,6.902483386230468,20.85496183206107,-40.13740458015267,5.877862595419847,25.370000000000005,,1
444,3.9408559326171875,-9.267954626464844,16.991649182128906,28.770992366412212,-61.6793893129771,36.770992366412216,25.370000000000005,,1
445,4.879382983398437,-10.443507641601562,11.719617126464843,-13.229007633587786,-59.32824427480916,20.450381679389313,25.370000000000005,,1
446,6.581660363769531,-12.301408129882812,3.976768957519531,-21.9618320610687,16.66412213740458,-0.40458015267175573,25.370000000000005,,1
447,-0.6296750366210937,-4.6830584472656245,11.832144604492187,-126.47328244274809,71.63358778625954,32.404580152671755,25.370000000000005,,1
448,4.292803576660156,12.378022583007812,-4.951209033203125,-67.53435114503817,65.5114503816794,-10.557251908396946,25.370000000000005,,1
449,3.7325603881835936,3.1411925781249996,8.726865051269531,-76.10687022900764,72.7557251908397,9.389312977099237,25.53000000000003,,1
450,5.061342309570312,4.965574243164062,9.662997900390625,-18.328244274809162,31.251908396946565,-16.27480916030534,25.53000000000003,,1
451,-8.834604125976561,4.944026428222656,11.6837041015625,1.717557251908397,0.15267175572519084,-14.259541984732824,25.53000000000003,,1
452,-6.605602380371093,-5.729324572753906,5.681440539550781,-4.961832061068702,3.4580152671755724,-17.068702290076335,25.53000000000003,,1
453,-2.195482922363281,-2.858676782226562,11.324573852539062,-14.82442748091603,-10.038167938931299,-14.625954198473282,25.53000000000003,,1
454,-9.610325463867188,-1.446097802734375,11.235988391113281,12.389312977099237,-35.458015267175576,-9.732824427480915,25.53000000000003,,1
455,-0.9648632690429687,2.5234885498046875,11.789048974609374,-10.038167938931299,3.877862595419847,3.015267175572519,25.53000000000003,,1
456,-6.854599353027344,-3.7301661865234372,6.87614716796875,-37.083969465648856,10.366412213740459,19.480916030534353,25.53000000000003,,1
457,4.096479040527344,8.872911352539061,10.43871923828125,-9.778625954198473,-14.076335877862595,16.900763358778626,25.53000000000003,,1
458,-2.70065947265625,-5.228936425781249,14.470554833984375,27.297709923664122,-41.06870229007634,9.557251908396946,25.430000000000007,,1
459,2.1547814941406247,-9.969455712890625,12.258312499999999,19.9618320610687,-50.62595419847328,20.267175572519083,25.430000000000007,,1
460,6.962338427734375,-7.338228088378906,9.76116016845703,43.778625954198475,-38.70992366412214,7.427480916030534,25.430000000000007,,1
461,-5.947196923828125,-7.747636572265624,11.240776794433593,30.671755725190838,-27.3206106870229,16.282442748091604,25.430000000000007,,1
462,-3.1220389648437497,2.2864625854492187,1.6352397338867186,-4.351145038167939,3.2061068702290076,4.748091603053435,25.430000000000007,,1
463,12.50730947265625,12.665326782226561,2.3870190551757813,-3.1603053435114505,78.33587786259542,-28.938931297709924,25.430000000000007,,1
464,7.951143713378905,0.7326257080078125,9.821015209960937,-35.954198473282446,48.66412213740458,-25.6793893129771,25.430000000000007,,1
465,11.915941662597655,7.819462622070312,4.153939880371094,-7.9541984732824424,59.69465648854962,-49.412213740458014,25.430000000000007,,1
466,12.533645690917968,7.831433630371094,7.338228088378906,-40.89312977099237,61.16030534351145,-49.717557251908396,25.430000000000007,,1
467,-5.516240625,9.275137231445312,3.689464758300781,-72.90076335877863,94.2824427480916,-11.458015267175572,25.430000000000007,,1
468,5.53539423828125,1.6448165405273436,6.241683728027343,-76.78625954198473,67.6412213740458,-12.320610687022901,25.670000000000016,,1
469,2.114080065917969,0.5817910034179687,8.238447912597655,-11.65648854961832,11.236641221374045,-18.938931297709924,25.670000000000016,,1
470,-0.2442085693359375,1.0462661254882812,-1.8076222534179687,9.587786259541986,59.74045801526717,-12.129770992366412,25.670000000000016,,1
471,-2.233790148925781,8.413224633789062,3.9528269409179684,10.946564885496183,54.587786259541986,-5.206106870229007,25.670000000000016,,1
472,0.03591302490234375,1.0175357055664063,12.208034265136718,29.900763358778626,-23.923664122137403,-8.244274809160306,25.670000000000016,,1
473,-4.649539624023437,-11.207257971191405,9.801861596679688,29.83969465648855,-63.85496183206107,-17.900763358778626,25.670000000000016,,1
474,-9.34696328125,-15.389928271484374,9.234435803222656,57.74809160305343,-53.61832061068702,-28.03053435114504,25.670000000000016,,1
475,-1.8650830932617186,-10.611101757812499,4.668693237304687,42.93893129770992,-9.893129770992367,0.2366412213740458,25.670000000000016,,1
476,5.118803149414062,-7.144297753906249,8.544905725097657,23.603053435114504,-12.076335877862595,-8.664122137404581,25.670000000000016,,1
477,-7.659051110839843,-11.214440576171874,13.814543579101562,18.84732824427481,-44.083969465648856,10.98473282442748,25.670000000000016,,1
478,6.303932971191406,-11.001356628417968,7.764395983886718,18.30534351145038,-40.38167938931298,-4.366412213740458,25.370000000000005,,1
479,2.703053674316406,-6.081272216796875,8.817844714355468,42.93893129770992,-33.38931297709924,1.7328244274809161,25.370000000000005,,1
480,-0.8571241943359375,-13.347674255371093,10.817003100585938,88.12977099236642,-68.25190839694656,3.5877862595419847,25.370000000000005,,1
481,-10.608707556152343,-13.63737265625,19.61270144958496,51.83969465648855,-106.29007633587786,17.396946564885496,25.370000000000005,,1
482,-2.2266075439453124,-12.662932580566405,11.944672082519531,38.229007633587784,-19.34351145038168,-0.7633587786259542,25.370000000000005,,1
483,6.533776330566406,-7.050923889160156,12.627019555664061,-16.748091603053435,-24.267175572519083,5.427480916030534,25.370000000000005,,1
484,17.413028674316404,-9.277531433105468,19.61270144958496,9.648854961832061,42.900763358778626,14.946564885496183,25.370000000000005,,1
485,-3.8690298828125,9.753977563476562,6.548141540527343,-104.80916030534351,23.259541984732824,14.412213740458014,25.370000000000005,,1
486,3.2920272827148436,-2.0159177978515626,7.8912886718749995,-10.206106870229007,25.045801526717558,-32.541984732824424,25.370000000000005,,1
487,-3.095702746582031,12.34689796142578,1.0654197387695312,29.610687022900763,17.541984732824428,-31.442748091603054,25.730000000000018,,1
488,-16.543933471679686,-6.696582043457031,5.549759448242187,27.68702290076336,-38.48854961832061,-16.83206106870229,25.730000000000018,,1
489,-2.8514941772460936,-10.998962426757812,19.61270144958496,-1.7709923664122138,-62.900763358778626,6.427480916030534,25.730000000000018,,1
490,2.0566192260742184,-7.9295958984374995,11.690886706542969,7.198473282442748,1.2366412213740459,21.633587786259543,25.730000000000018,69.85240571413661,1
491,4.2497079467773435,-9.153032946777342,8.463502868652343,-8.259541984732824,21.137404580152673,8.038167938931299,25.730000000000018,69.85240571413661,1
492,19.61270144958496,-18.502390429687498,19.61270144958496,-34.32824427480916,19.099236641221374,18.755725190839694,25.730000000000018,,1
493,16.792930444335937,-12.327744348144531,6.947973217773437,-28.81679389312977,62.099236641221374,10.694656488549619,25.730000000000018,,1
494,5.827486840820312,-16.807295654296873,5.870582470703124,14.076335877862595,-12.358778625954198,4.67175572519084,25.730000000000018,,1
495,5.983109948730468,-9.536105212402344,6.732495068359374,-14.961832061068701,-3.0076335877862594,47.916030534351144,25.730000000000018,,1
496,18.023550097656248,1.8459294799804686,14.149731811523436,18.763358778625953,-14.648854961832061,14.297709923664122,25.730000000000018,,1
497,5.667075329589843,3.5984850952148437,9.038111267089842,4.297709923664122,-2.2900763358778624,3.2900763358778624,25.430000000000007,,1
498,14.276624499511717,9.82580361328125,8.853757739257812,-20.267175572519083,35.23664122137404,-4.519083969465649,25.430000000000007,,1
499,19.61270144958496,0.3854664672851562,-9.334992272949219,-25.53435114503817,113.3206106870229,4.793893129770993,25.430000000000007,,1
500,4.369418029785156,0.7445967163085937,6.076483813476562,-63.778625954198475,72.25190839694656,-20.14503816793893,25.430000000000007,,1
501,1.0773907470703123,0.7852981445312499,11.975796704101562,-29.85496183206107,18.709923664122137,-9.755725190839694,25.430000000000007,,1
502,-15.842432385253906,1.93451494140625,16.52238565673828,22.106870229007633,-47.412213740458014,-25.17557251908397,25.430000000000007,,1
503,-2.360682836914062,-10.249577307128906,5.865794067382812,-5.183206106870229,-30.557251908396946,-0.4580152671755725,25.430000000000007,,1
504,1.9536685546875,-9.196128576660156,8.046911779785155,-16.87786259541985,15.679389312977099,19.374045801526716,25.430000000000007,,1
505,6.924031201171875,-9.988609326171874,9.162609753417968,-46.97709923664122,13.900763358778626,20.908396946564885,25.430000000000007,,1
506,4.8650177734375,-10.54645831298828,8.262389929199218,-24.83206106870229,8.564885496183207,6.755725190839694,25.79000000000002,,1
507,1.9871873779296874,-9.212887988281249,12.8329208984375,-21.259541984732824,7.656488549618321,13.305343511450381,25.79000000000002,,1
508,4.218583325195312,-12.148179223632813,12.835315100097656,-13.67175572519084,-35.541984732824424,-1.4045801526717556,25.79000000000002,,1
509,4.278438366699218,-7.924807495117187,7.560888842773437,-13.145038167938932,-6.572519083969466,-0.7709923664122137,25.79000000000002,,1
510,4.163516687011718,-8.712499841308594,14.38436357421875,-34.50381679389313,-13.419847328244275,17.80916030534351,25.79000000000002,,1
511,2.3127988037109373,-13.259088793945311,7.122749938964843,-13.717557251908397,-1.2061068702290076,13.061068702290076,25.79000000000002,,1
512,4.762067102050781,-9.555258825683593,9.792284790039062,-27.51145038167939,17.015267175572518,25.68702290076336,25.79000000000002,,1
513,4.838681555175781,-13.014880224609374,11.537657800292967,10.19083969465649,-30.900763358778626,15.312977099236642,25.79000000000002,,1
514,3.782838623046875,-7.273584643554687,13.249511987304686,12.717557251908397,-40.099236641221374,31.366412213740457,25.79000000000002,,1
515,3.2728736694335936,-13.464990136718749,9.93354268798828,43.045801526717554,-32.76335877862596,17.419847328244273,26.05000000000001,,1
516,10.287884533691406,-1.62805712890625,7.024587670898437,34.770992366412216,-4.175572519083969,-15.511450381679388,26.05000000000001,,1
517,4.96078583984375,0.011971008300781249,4.7884033203125,-76.36641221374046,64.10687022900764,18.244274809160306,26.05000000000001,,1
518,10.129867224121092,-6.5601125488281244,-2.0829554443359375,-42.51908396946565,16.137404580152673,12.16030534351145,26.05000000000001,,1
519,4.201823913574218,0.36152445068359373,4.647145422363281,-15.053435114503817,27.259541984732824,4.015267175572519,26.05000000000001,,1
520,5.702988354492187,0.3447650390625,13.165714929199218,-34.2442748091603,14.251908396946565,2.1908396946564888,26.05000000000001,,1
521,-8.10197841796875,11.640608471679688,2.4349030883789062,-52.56488549618321,25.603053435114504,-7.595419847328245,26.05000000000001,,1
522,2.4157494750976563,-1.2689268798828124,14.662090966796875,-30.69465648854962,7.549618320610687,-3.404580152671756,26.05000000000001,,1
523,-0.612915625,-1.7310078002929687,10.570400329589843,-22.641221374045802,16.48854961832061,-10.992366412213741,26.05000000000001,,1
524,-1.0534487304687499,1.5873557006835937,0.9121908325195311,-6.923664122137405,66.25954198473282,-17.83206106870229,26.05000000000001,,1
525,1.3766659545898436,-1.8339584716796873,6.385335827636719,-19.061068702290076,54.213740458015266,-15.50381679389313,25.910000000000025,,1
526,-1.9393033447265624,0.9002198242187499,12.758700646972656,-45.87022900763359,31.946564885496183,8.427480916030534,25.910000000000025,,1
527,2.5713725830078125,2.7533319091796873,14.43464180908203,-43.587786259541986,12.358778625954198,19.549618320610687,25.910000000000025,,1
528,0.9241618408203125,-1.9967641845703124,10.888829150390624,-32.0763358778626,14.98473282442748,12.099236641221374,25.910000000000025,,1
529,4.264073156738281,-6.042964990234375,12.854468713378905,-10.595419847328245,8.0,1.1068702290076335,25.910000000000025,,1
530,2.5857377929687497,-10.091559997558592,7.625532287597656,4.740458015267175,14.732824427480915,9.900763358778626,25.910000000000025,,1
531,7.252036828613281,-13.498508959960937,13.567940808105467,-12.755725190839694,-31.793893129770993,17.282442748091604,25.910000000000025,,1
532,10.012551342773437,-13.778630554199218,19.61270144958496,67.06870229007633,-66.05343511450381,-11.618320610687023,25.910000000000025,,1
533,-1.5490484741210937,-4.541800549316406,6.979097839355468,6.473282442748092,-18.82442748091603,22.091603053435115,25.910000000000025,,1
534,2.626439221191406,-6.191405493164062,4.829104748535156,-31.00763358778626,8.007633587786259,30.50381679389313,25.630000000000052,,1
535,10.409988818359375,-6.193799694824218,7.876923461914062,-26.328244274809162,12.351145038167939,3.687022900763359,25.630000000000052,,1
536,9.430760339355468,8.930372192382812,10.156203442382813,-46.86259541984733,11.931297709923664,-12.900763358778626,25.630000000000052,,1
537,6.169857678222656,4.043806604003906,9.476250170898437,30.595419847328245,-47.0,-21.076335877862597,25.630000000000052,,1
538,-2.4516625,1.917755529785156,4.582501977539062,41.412213740458014,-68.38931297709924,-28.6793893129771,25.630000000000052,,1
539,-12.157756030273436,-14.317325927734375,17.597382202148438,24.061068702290076,-65.43511450381679,-19.206106870229007,25.630000000000052,,1
540,-8.157045056152343,-10.374075793457031,17.86313858642578,11.48091603053435,-44.38931297709924,-6.893129770992366,25.630000000000052,,1
541,1.4532804077148436,-3.526659045410156,6.229712719726562,-16.641221374045802,11.229007633587786,-4.763358778625954,25.630000000000052,,1
542,2.5857377929687497,-9.524134204101562,5.932831713867187,-65.43511450381679,57.57251908396947,-0.7022900763358778,25.630000000000052,,1
543,5.1690813842773435,-17.271770776367187,19.61270144958496,-79.38167938931298,52.656488549618324,18.412213740458014,25.630000000000052,,1
544,8.798691101074219,-1.1156979736328125,12.035651745605469,-39.83206106870229,87.48091603053435,4.267175572519084,25.350000000000023,,1
545,-3.0406361083984375,-0.3950432739257812,7.651868505859374,-37.595419847328245,41.32824427480916,13.793893129770993,25.350000000000023,71.41262689408235,1
546,-2.0757728393554684,-3.1603461914062496,11.046846459960937,-34.80916030534351,65.68702290076335,20.900763358778626,25.350000000000023,71.41262689408235,1
547,1.8531120849609375,0.12449848632812499,8.197746484375,-18.00763358778626,37.900763358778626,8.801526717557252,25.350000000000023,,1
548,-1.6903063720703124,4.496310717773437,10.165780249023436,13.427480916030534,-6.977099236641221,-24.748091603053435,25.350000000000023,,1
549,-7.410054138183593,4.2521021484374995,11.84890401611328,30.129770992366414,-44.42748091603053,-13.061068702290076,25.350000000000023,,1
550,-4.000710974121094,-1.8267758666992187,-5.942408520507812,-2.2977099236641223,-11.129770992366412,15.618320610687023,25.350000000000023,,1
551,0.6967126831054687,-6.598419775390624,6.023811376953125,8.488549618320612,-32.76335877862596,6.541984732824427,25.350000000000023,,1
552,0.5793968017578125,-11.192892761230468,18.681955554199217,12.213740458015268,-91.05343511450381,8.908396946564885,25.350000000000023,,1
553,-2.786850732421875,-11.592724438476562,19.500772521972657,42.85496183206107,-121.51908396946565,30.18320610687023,25.53000000000003,,1
554,5.267243652343749,-7.687781530761718,12.878410729980468,9.435114503816793,-87.16793893129771,24.480916030534353,25.53000000000003,,1
555,2.655169641113281,-15.94777725830078,13.577517614746093,29.045801526717558,-20.48854961832061,21.47328244274809,25.53000000000003,,1
556,5.877765075683594,-10.187328063964843,9.363722692871093,-104.95419847328245,76.05343511450381,22.740458015267176,25.53000000000003,,1
557,2.039859814453125,3.366247534179687,8.525752111816406,-71.94656488549619,37.267175572519086,13.83206106870229,25.53000000000003,,1
558,3.6056677001953124,4.5322237426757805,19.61270144958496,-35.13740458015267,31.358778625954198,-11.946564885496183,25.53000000000003,,1
559,3.825934252929687,3.7708676147460936,10.319009155273436,-49.64885496183206,76.3587786259542,15.213740458015268,25.53000000000003,,1
560,2.013523596191406,-4.352658618164062,10.632649572753905,-24.549618320610687,8.099236641221374,-9.16793893129771,25.53000000000003,,1
561,1.8650830932617186,-2.214636535644531,16.340426330566405,-50.49618320610687,-2.954198473282443,12.221374045801527,25.53000000000003,,1
562,4.402936853027343,-13.036428039550781,8.334215979003906,-38.74809160305343,13.244274809160306,17.732824427480917,25.53000000000003,,1
563,3.4907460205078125,-11.980585107421874,7.273584643554687,-27.31297709923664,32.770992366412216,24.770992366412212,25.590000000000032,,1
564,3.189076611328125,-9.095572106933593,10.16338604736328,-5.885496183206107,2.480916030534351,17.458015267175572,25.590000000000032,,1
565,-0.3806780639648437,-9.447519750976562,11.84890401611328,46.29770992366412,-42.01526717557252,-8.16030534351145,25.590000000000032,,1
566,-0.19153613281249998,-9.404424121093749,9.801861596679688,41.33587786259542,-34.64885496183206,8.84732824427481,25.590000000000032,,1
567,6.512228515625,-12.473790649414061,8.40125362548828,-6.312977099236641,-18.748091603053435,41.42748091603053,25.590000000000032,,1
568,5.504269616699219,-10.43153663330078,12.421118212890624,13.961832061068701,-70.63358778625954,25.022900763358777,25.590000000000032,,1
569,1.68551796875,-15.251064575195311,19.61270144958496,79.6412213740458,-86.98473282442748,-3.5419847328244276,25.590000000000032,,1
570,-4.450820886230469,-12.255918298339843,6.2584431396484375,78.0381679389313,-47.404580152671755,11.221374045801527,25.590000000000032,,1
571,-0.0143652099609375,-11.348515869140625,12.938265771484375,73.65648854961832,-89.69465648854961,-0.648854961832061,25.590000000000032,,1
572,6.2392895263671875,-13.160926525878905,16.922217333984374,32.99236641221374,-43.88549618320611,12.083969465648854,25.630000000000052,,1
573,5.877765075683594,-10.577582934570312,13.352462658691405,22.015267175572518,-46.83969465648855,-1.0687022900763359,25.630000000000052,,1
574,4.896142395019531,-8.786720092773438,12.026074938964843,-12.86259541984733,-16.374045801526716,6.3893129770992365,25.630000000000052,,1
575,1.9895815795898437,-4.637568615722656,5.8226984375,-90.70229007633588,42.83969465648855,17.396946564885496,25.630000000000052,,1
576,6.8569935546875,-6.339845996093749,12.258312499999999,-15.86259541984733,-19.557251908396946,-14.091603053435115,25.630000000000052,,1
577,1.5490484741210937,-10.687716210937499,14.240711474609375,26.50381679389313,11.84732824427481,2.099236641221374,25.630000000000052,,1
578,-1.5370774658203123,-10.314220751953124,11.935095275878906,4.9541984732824424,-6.709923664122138,-16.0,25.630000000000052,,1
579,2.9951462768554684,-7.659051110839843,7.529764221191406,-0.6717557251908397,-17.702290076335878,-17.251908396946565,25.630000000000052,,1
580,1.4317325927734375,-6.955155822753905,6.1626750732421876,-16.786259541984734,-8.076335877862595,-27.396946564885496,25.630000000000052,,1
581,2.770091320800781,-2.3487118286132813,2.4899697265625,-34.396946564885496,28.587786259541986,-9.549618320610687,25.630000000000052,,1
582,-0.3758896606445312,1.3359645263671873,11.738770739746093,-25.12213740458015,11.091603053435115,-22.603053435114504,25.79000000000002,,1
583,-3.6822821533203123,3.076549133300781,15.538368774414062,-24.3206106870229,19.0,-19.427480916030536,25.79000000000002,,1
584,2.6719290527343746,-2.5067291381835934,5.394136340332031,-16.572519083969464,61.404580152671755,3.427480916030534,25.79000000000002,,1
585,4.967968444824218,2.379836450195312,8.226476904296874,-9.458015267175572,45.02290076335878,0.4580152671755725,25.79000000000002,,1
586,-4.240131140136718,4.359841223144531,0.967257470703125,27.03053435114504,16.96946564885496,-16.595419847328245,25.79000000000002,,1
587,-5.779602807617187,5.884947680664062,10.766724865722656,29.85496183206107,10.0,-21.114503816793892,25.79000000000002,,1
588,0.5793968017578125,5.65031591796875,6.282385156249999,35.12213740458015,1.549618320610687,-3.5877862595419847,25.79000000000002,,1
589,-9.181763366699219,2.291250988769531,11.233594189453123,32.458015267175576,-28.51145038167939,-9.992366412213741,25.79000000000002,,1
590,-8.8872765625,1.3287819213867187,15.976507678222655,23.435114503816795,-59.83969465648855,-7.435114503816794,25.79000000000002,,1
591,-7.1395093505859375,3.835511059570312,-1.85790048828125,27.6793893129771,-13.007633587786259,-7.8320610687022905,25.79000000000002,,1
592,-2.1787235107421874,1.637633935546875,6.974309436035155,11.320610687022901,-36.404580152671755,-19.81679389312977,25.690000000000055,,1
593,4.781220715332031,-6.5960255737304685,13.24711778564453,-9.351145038167939,-24.625954198473284,-0.8320610687022901,25.690000000000055,,1
594,4.527435339355469,-7.180210778808593,14.020444921874999,25.46564885496183,-48.11450381679389,-11.916030534351146,25.690000000000055,,1
595,-17.156849096679686,-19.6133,19.61270144958496,37.916030534351144,-73.95419847328245,-18.427480916030536,25.690000000000055,,1
596,1.7381904052734374,-7.723694555664062,10.83376251220703,-4.549618320610687,16.564885496183205,8.419847328244275,25.690000000000055,,1
597,6.777984899902344,-13.941436267089843,11.659762084960937,-27.702290076335878,20.083969465648856,-5.1679389312977095,25.690000000000055,,1
598,9.9215716796875,3.3710359375,13.757082739257811,-40.68702290076336,49.06870229007634,-3.2442748091603053,25.690000000000055,,1
599,-4.613626599121093,0.6679822631835937,9.931148486328125,-66.51908396946565,67.41984732824427,6.870229007633588,25.690000000000055,73.29478772147903,1
600,-4.685452648925781,4.266467358398438,13.582306018066406,2.8473282442748094,22.022900763358777,-37.969465648854964,25.690000000000055,73.29478772147903,1
601,-7.453149768066406,-0.6368576416015624,-7.194575988769531,14.961832061068701,56.81679389312977,-8.961832061068701,25.470000000000027,,1
602,-0.7493851196289062,-10.977414611816405,11.341333264160156,27.793893129770993,-42.33587786259542,-20.435114503816795,25.470000000000027,,1
603,2.2290017456054687,-9.911994873046874,6.777984899902344,-21.938931297709924,-6.351145038167939,25.015267175572518,25.470000000000027,,1
604,3.699041564941406,-11.808202587890625,15.076287854003905,-28.595419847328245,1.8396946564885497,26.15267175572519,25.470000000000027,,1
605,4.034229797363281,-6.119579443359375,7.716511950683593,-28.236641221374047,-1.450381679389313,32.0763358778626,25.470000000000027,,1
606,2.8658593872070313,2.269703173828125,7.520187414550781,0.32061068702290074,-9.877862595419847,17.603053435114504,25.470000000000027,,1
607,2.693476867675781,4.728548278808593,1.5035586425781249,44.17557251908397,2.595419847328244,-2.9389312977099236,25.470000000000027,,1
608,1.7764976318359373,8.951920007324219,-9.023746057128905,85.3969465648855,-28.068702290076335,-12.366412213740459,25.470000000000027,,1
609,-14.401122985839843,9.481038574218749,-0.8379705810546875,46.12213740458015,-48.51145038167939,-21.770992366412212,25.470000000000027,,1
610,-7.963114721679687,-11.089942089843749,9.076418493652342,19.427480916030536,-38.541984732824424,-3.9389312977099236,25.410000000000025,,1
611,-1.8171990600585937,-15.854403393554687,17.101782458496093,26.84732824427481,-32.6412213740458,14.709923664122137,25.410000000000025,,1
612,4.970362646484375,-10.218452685546874,7.821856823730468,-0.24427480916030533,-29.68702290076336,4.404580152671755,25.410000000000025,,1
613,4.910507604980468,-16.852785485839842,19.591752185058592,56.23664122137404,-48.17557251908397,7.648854961832061,25.410000000000025,,1
614,5.817910034179687,-11.9135474609375,5.724536169433593,-13.030534351145038,-12.068702290076336,14.274809160305344,25.410000000000025,,1
615,4.472368701171875,-10.615890161132812,13.225569970703123,0.04580152671755725,-5.9541984732824424,-5.282442748091603,25.410000000000025,,1
616,0.612915625,-17.70512127685547,10.08677159423828,49.969465648854964,-25.99236641221374,2.5267175572519083,25.410000000000025,,1
617,4.1754876953124995,-10.189722265624999,15.682020874023436,-31.450381679389313,14.16030534351145,-4.847328244274809,25.410000000000025,,1
618,6.904877587890625,-4.388571643066406,4.5585599609375,-27.0381679389313,46.99236641221374,4.9465648854961835,25.410000000000025,,1
619,2.961627453613281,3.1507693847656246,5.999869360351562,-63.961832061068705,32.29007633587786,49.52671755725191,25.410000000000025,,1
620,1.4700398193359374,-7.596801867675781,6.718129858398437,-50.32824427480916,58.06870229007634,39.045801526717554,25.590000000000032,,1
621,3.8666356811523435,-3.3782185424804685,7.453149768066406,-40.900763358778626,53.00763358778626,5.885496183206107,25.590000000000032,,1
622,-0.4572925170898437,0.6464344482421874,8.595183959960938,-9.603053435114504,22.198473282442748,-7.603053435114504,25.590000000000032,,1
623,-3.5817256835937497,1.8195932617187498,5.772420202636718,6.587786259541985,34.343511450381676,-15.389312977099237,25.590000000000032,,1
624,0.23702596435546874,3.1364041748046874,8.295908752441406,-0.9770992366412213,15.83969465648855,6.290076335877862,25.590000000000032,,1
625,-1.2928688964843749,3.3973721557617185,14.051569543457031,-4.0534351145038165,1.8702290076335877,10.83969465648855,25.590000000000032,,1
626,-7.127538342285156,1.66636435546875,12.373234179687499,9.740458015267176,-30.938931297709924,-28.633587786259543,25.590000000000032,,1
627,1.8938135131835936,1.4317325927734375,8.511386901855468,24.709923664122137,-22.091603053435115,-18.389312977099237,25.590000000000032,,1
628,1.0869675537109373,-0.8571241943359375,1.8746598999023436,14.931297709923664,-6.312977099236641,1.816793893129771,25.590000000000032,,1
629,3.622427111816406,0.34715924072265625,5.906495495605468,6.809160305343512,-3.1297709923664123,-3.687022900763359,25.590000000000032,,1
630,2.3391350219726563,4.13718046875,12.662932580566405,-6.6106870229007635,3.954198473282443,3.4732824427480917,25.590000000000032,,1
631,1.7597382202148437,4.584896179199219,11.233594189453123,-35.030534351145036,5.259541984732825,-0.7862595419847328,25.590000000000032,,1
632,-0.9528922607421875,1.3144167114257812,10.771513269042968,4.244274809160306,-1.6717557251908397,-16.65648854961832,25.590000000000032,,1
633,-0.1771709228515625,3.1292215698242187,0.2442085693359375,-4.541984732824427,66.43511450381679,-14.183206106870228,25.590000000000032,,1
634,-1.886630908203125,4.704606262207031,4.723759875488281,-12.67175572519084,46.80916030534351,-24.15267175572519,25.590000000000032,,1
635,-3.5194764404296874,6.423643054199219,-2.858676782226562,-35.16793893129771,68.04580152671755,7.625954198473282,25.590000000000032,,1
636,1.369483349609375,2.2098481323242187,10.587159741210938,-52.725190839694655,39.152671755725194,4.137404580152672,25.590000000000032,,1
637,2.003946789550781,0.9696516723632812,11.183315954589844,-43.20610687022901,2.480916030534351,3.122137404580153,25.590000000000032,,1
638,-6.445190869140625,1.4341267944335936,4.797980126953124,-6.3816793893129775,-4.129770992366412,-34.41984732824427,25.590000000000032,,1
639,-6.967126831054687,-6.715735656738281,14.681244580078124,-28.85496183206107,-12.068702290076336,-16.587786259541986,25.810000000000002,,1
640,0.948103857421875,-7.038952880859375,10.83376251220703,-12.98473282442748,-38.587786259541986,-40.56488549618321,25.810000000000002,,1
641,1.39821376953125,-5.837063647460937,5.868188269042968,-0.732824427480916,-16.366412213740457,-5.5038167938931295,25.810000000000002,,1
642,2.360682836914062,-2.3295582153320313,8.384494213867187,1.9083969465648856,-19.358778625954198,-19.587786259541986,25.810000000000002,,1
643,2.3487118286132813,-9.370905297851563,2.578555187988281,2.66412213740458,-1.618320610687023,0.5801526717557252,25.810000000000002,,1
644,3.411737365722656,-7.134720947265625,2.5857377929687497,-13.679389312977099,20.64885496183206,21.435114503816795,25.810000000000002,,1
645,-2.6384102294921874,-5.746083984375,19.61270144958496,18.885496183206108,-66.16030534351145,-27.083969465648856,25.810000000000002,,1
646,0.5985504150390625,-4.6064439941406246,19.603723193359375,-10.091603053435115,-49.656488549618324,2.801526717557252,25.810000000000002,,1
647,-1.1109095703125,-3.6822821533203123,7.745242370605468,17.213740458015266,-40.656488549618324,14.236641221374045,25.810000000000002,,1
648,1.3646949462890625,-7.860164050292968,4.402936853027343,52.68702290076336,-35.87022900763359,-16.862595419847327,25.610000000000014,,1
649,-7.149086157226562,-5.951985327148437,11.097124694824219,47.66412213740458,-69.70229007633588,-18.206106870229007,25.610000000000014,,1
650,-0.9241618408203125,-3.5769372802734374,11.25514200439453,22.435114503816795,-45.083969465648856,6.137404580152672,25.610000000000014,,1
651,1.675941162109375,-15.777788940429687,16.199168432617185,91.17557251908397,-94.63358778625954,24.68702290076336,25.610000000000014,,1
652,-4.431667272949219,-11.434707128906249,8.279149340820313,11.396946564885496,-23.9618320610687,24.061068702290076,25.610000000000014,,1
653,8.750807067871094,-11.039663854980468,14.465766430664061,-63.82442748091603,8.129770992366412,4.519083969465649,25.610000000000014,,1
654,-8.951920007324219,1.9847931762695312,-0.7493851196289062,-16.48854961832061,42.44274809160305,-49.16793893129771,25.610000000000014,,1
655,4.297591979980469,7.8529814453124995,-0.9002198242187499,-13.48091603053435,31.786259541984734,-16.083969465648856,25.610000000000014,,1
656,3.0502129150390624,-7.8553756469726554,14.633360546874998,-4.923664122137405,-33.778625954198475,-41.717557251908396,25.610000000000014,,1
657,0.967257470703125,-10.244788903808594,10.031704956054687,13.877862595419847,-6.801526717557252,-12.98473282442748,25.610000000000014,,1
658,9.543287817382812,-6.983886242675781,7.975085729980468,-68.03053435114504,68.04580152671755,38.908396946564885,25.630000000000052,66.86972004917878,1
659,-0.33758243408203126,-4.086902233886718,10.982203015136719,-79.56488549618321,78.89312977099236,49.847328244274806,25.630000000000052,,1
660,7.022193469238281,0.12210428466796874,9.414000927734374,-70.69465648854961,49.42748091603053,57.79389312977099,25.630000000000052,,1
661,1.9033903198242186,-1.848323681640625,13.862427612304687,-20.580152671755727,16.17557251908397,1.7786259541984732,25.630000000000052,,1
662,-2.7748797241210936,-2.3367408203125,12.050016955566406,27.862595419847327,1.2442748091603053,-24.954198473282442,25.630000000000052,,1
663,3.907337109375,0.41419688720703124,-4.587290380859375,-9.84732824427481,81.76335877862596,28.251908396946565,25.630000000000052,,1
664,-1.4891934326171874,-5.125985754394531,-1.5873557006835937,43.74809160305343,48.3587786259542,4.786259541984733,25.630000000000052,,1
665,2.346317626953125,-1.944091748046875,-5.166687182617188,16.198473282442748,99.25190839694656,20.46564885496183,25.630000000000052,,1
666,3.9743747558593747,-1.1947066284179686,-2.4253262817382812,13.564885496183207,61.32824427480916,17.015267175572518,25.630000000000052,,1
667,3.9647979492187497,6.177040283203125,3.8043864379882812,-60.00763358778626,48.83206106870229,21.870229007633586,25.230000000000018,,1
668,5.298368273925781,-0.062249243164062495,9.02135185546875,-22.564885496183205,6.465648854961832,0.8091603053435115,25.230000000000018,,1
669,-2.023100402832031,6.6343328002929685,4.316745593261719,26.885496183206108,-39.43511450381679,-19.763358778625953,25.230000000000018,,1
670,-9.91438907470703,12.662932580566405,3.3111808959960936,18.984732824427482,7.282442748091603,-33.79389312977099,25.230000000000018,,1
671,2.252943762207031,-5.911283898925781,17.77215892333984,34.0,-58.213740458015266,-34.3206106870229,25.230000000000018,,1
672,2.868253588867187,-10.374075793457031,12.473790649414061,43.25190839694657,-14.198473282442748,-9.007633587786259,25.230000000000018,,1
673,0.15322890625,-7.086836914062499,19.48401311035156,-42.3206106870229,-40.87786259541985,12.335877862595419,25.230000000000018,,1
674,8.29351455078125,-11.652579479980469,17.226280944824218,1.3587786259541985,-5.122137404580153,-8.84732824427481,25.230000000000018,,1
675,2.5522189697265625,-8.683769421386717,2.138022082519531,17.755725190839694,78.45801526717557,13.625954198473282,25.230000000000018,,1
676,2.6599580444335937,-6.040570788574218,3.3207577026367185,-62.85496183206107,99.87786259541984,43.67175572519084,25.230000000000018,,1
677,-3.9312791259765625,-6.193799694824218,2.2074539306640624,-72.99236641221374,65.77099236641222,37.20610687022901,25.430000000000007,,1
678,8.24802471923828,-4.951209033203125,9.014169250488282,-20.81679389312977,16.366412213740457,23.83206106870229,25.430000000000007,,1
679,2.829946362304687,-6.2201359130859375,14.731522814941405,-11.86259541984733,8.099236641221374,16.099236641221374,25.430000000000007,,1
680,-0.5913678100585937,-5.662286926269531,10.931924780273437,-13.961832061068701,16.900763358778626,32.50381679389313,25.430000000000007,,1
681,0.26336218261718747,-10.922347973632812,7.335833886718749,14.938931297709924,-19.14503816793893,12.13740458015267,25.430000000000007,,1
682,0.9935936889648437,-10.929530578613281,10.824185705566405,28.03053435114504,-39.76335877862596,-0.2900763358778626,25.430000000000007,,1
683,3.361459130859375,-7.50821640625,11.860875024414062,-0.9083969465648855,-30.374045801526716,33.48854961832061,25.430000000000007,,1
684,9.718064538574218,-9.358934289550781,12.966996191406249,51.778625954198475,-71.38167938931298,5.114503816793893,25.430000000000007,,1
685,3.67749375,-10.27830772705078,15.286977600097655,69.6030534351145,-90.76335877862596,-8.603053435114504,25.430000000000007,,1
686,-6.086060620117187,-12.059593762207031,16.364368347167968,52.541984732824424,-89.45801526717557,-6.854961832061068,25.750000000000057,,1
687,3.9815573608398434,-6.787561706542968,14.53040987548828,13.381679389312977,-46.48854961832061,1.8778625954198473,25.750000000000057,,1
688,5.147533569335937,-7.314286071777343,12.631807958984375,16.045801526717558,-23.14503816793893,13.755725190839694,25.750000000000057,,1
689,-7.4699091796875,-10.496180078124999,18.854338073730467,26.740458015267176,-68.65648854961832,-5.32824427480916,25.750000000000057,,1
690,3.373430139160156,-8.518569506835936,19.61270144958496,-10.122137404580153,-31.786259541984734,13.16030534351145,25.750000000000057,,1
691,2.9281086303710935,-9.354145886230468,19.54865655517578,-13.633587786259541,-5.106870229007634,28.114503816793892,25.750000000000057,,1
692,4.060566015625,-9.423577734375,8.374917407226562,-6.732824427480916,-5.114503816793893,1.702290076335878,25.750000000000057,,1
693,4.304774584960938,-10.40041201171875,12.677297790527343,-25.480916030534353,3.0610687022900764,-0.13740458015267176,25.750000000000057,,1
694,0.21308394775390624,-8.298302954101562,7.41244833984375,-28.19083969465649,19.435114503816795,11.465648854961833,25.750000000000057,,1
695,2.9855694702148434,-6.636727001953124,5.336675500488281,-17.946564885496183,13.34351145038168,-0.37404580152671757,25.750000000000057,,1
696,4.390965844726562,-11.298237634277344,8.652644799804687,-21.96946564885496,-22.396946564885496,20.47328244274809,25.810000000000002,,1
697,2.877830395507812,-10.189722265624999,8.84178673095703,-2.633587786259542,-22.53435114503817,-16.358778625954198,25.810000000000002,,1
698,1.3934253662109375,-8.655039001464843,4.302380383300781,6.190839694656488,-0.7709923664122137,-21.96946564885496,25.810000000000002,,1
699,0.5793968017578125,-3.0119056884765625,7.0844427124023435,-1.0229007633587786,17.625954198473284,-1.7786259541984732,25.810000000000002,,1
700,-0.47884033203125,2.959233251953125,8.913612780761719,-5.564885496183206,35.76335877862596,-1.2595419847328244,25.810000000000002,,1
701,0.35673604736328124,1.9488801513671874,6.658274816894531,-17.786259541984734,33.770992366412216,19.755725190839694,25.810000000000002,,1
702,-0.373495458984375,-2.9281086303710935,13.646949462890625,-2.816793893129771,12.458015267175572,13.274809160305344,25.810000000000002,,1
703,1.649604943847656,-0.8643067993164062,-1.7621324218749999,29.12213740458015,70.6030534351145,25.862595419847327,25.810000000000002,,1
704,1.2114660400390624,2.24097275390625,-2.147598889160156,1.6870229007633588,56.908396946564885,25.114503816793892,25.810000000000002,,1
705,-1.0366893188476562,1.0103531005859374,12.097900988769531,27.236641221374047,-22.870229007633586,-12.564885496183207,25.810000000000002,,1
706,-3.9815573608398434,2.1260510742187497,5.872976672363281,25.49618320610687,-17.786259541984734,-11.969465648854962,25.670000000000016,,1
707,-6.763619689941406,1.2210428466796874,0.9864110839843749,13.022900763358779,-39.61068702290076,-14.908396946564885,25.670000000000016,,1
708,10.556035119628906,0.9074024291992187,2.4157494750976563,-0.9007633587786259,15.954198473282442,-17.435114503816795,25.670000000000016,,1
709,-6.7803791015625,-6.89530078125,12.581529724121093,8.15267175572519,-25.068702290076335,-21.572519083969464,25.670000000000016,,1
710,-2.3319524169921872,-6.919242797851562,14.86260535583496,32.38931297709924,-87.20610687022901,-49.52671755725191,25.670000000000016,,1
711,1.2138602416992186,-7.182604980468749,19.61270144958496,-24.81679389312977,-43.458015267175576,-15.961832061068701,25.670000000000016,,1
712,-0.8451531860351562,-4.527435339355469,18.1959326171875,-42.87022900763359,-12.511450381679388,-4.32824427480916,25.670000000000016,,1
713,1.5610194824218748,-10.81460889892578,6.4834980957031245,-42.19847328244275,37.45038167938932,22.641221374045802,25.670000000000016,,1
714,5.518634826660156,-12.847286108398437,7.991845141601562,-25.954198473282442,54.33587786259542,16.793893129770993,25.670000000000016,,1
715,8.166621862792969,-13.61103643798828,19.61270144958496,-27.17557251908397,43.465648854961835,9.419847328244275,25.590000000000032,,1
716,7.773972790527344,-8.535328918457031,2.6623522460937497,-5.145038167938932,69.48091603053435,23.31297709923664,25.590000000000032,,1
717,6.677428430175781,-5.561730456542969,6.256048937988281,-17.15267175572519,61.79389312977099,34.213740458015266,25.590000000000032,67.83387242851597,1
718,8.145074047851562,0.5913678100585937,1.7310078002929687,-9.740458015267176,37.152671755725194,38.213740458015266,25.590000000000032,,1
719,3.5793314819335937,-3.88818349609375,19.61270144958496,19.709923664122137,-8.381679389312977,-0.5648854961832062,25.590000000000032,,1
720,-0.26336218261718747,-3.2321722412109373,1.4700398193359374,-1.3129770992366412,51.732824427480914,3.7480916030534353,25.590000000000032,,1
721,-5.410895751953125,1.9967641845703124,3.071760729980469,34.13740458015267,29.603053435114504,-23.702290076335878,25.590000000000032,,1
722,7.563283044433593,2.6791116577148437,11.949460485839843,-10.13740458015267,45.900763358778626,10.49618320610687,25.590000000000032,,1
723,0.5817910034179687,1.917755529785156,7.304709265136719,36.038167938931295,-21.442748091603054,-13.992366412213741,25.590000000000032,,1
724,-4.565742565917969,2.85388837890625,9.811438403320311,21.748091603053435,-42.12213740458015,-9.106870229007633,25.590000000000032,,1
725,-4.5968671875,-1.4317325927734375,13.046004846191405,29.091603053435115,-68.46564885496183,5.977099236641221,25.430000000000007,,1
726,6.528987927246093,-4.228160131835938,11.949460485839843,4.824427480916031,-22.641221374045802,1.0076335877862594,25.430000000000007,,1
727,-2.365471240234375,-0.023942016601562498,9.617508068847656,-9.450381679389313,-18.015267175572518,6.312977099236641,25.430000000000007,,1
728,2.8514941772460936,-10.565611926269531,18.033126904296875,19.938931297709924,-48.38931297709924,-2.8396946564885495,25.430000000000007,,1
729,-0.6751648681640625,-10.244788903808594,19.61270144958496,52.458015267175576,-11.954198473282442,-12.557251908396946,25.430000000000007,,1
730,1.3958195678710936,-8.963891015625,15.102624072265623,1.6564885496183206,-13.221374045801527,-15.412213740458014,25.430000000000007,,1
731,1.3335703247070312,-5.329492895507812,12.327744348144531,-12.038167938931299,-17.236641221374047,4.229007633587786,25.430000000000007,,1
732,4.115632653808594,-10.838550915527343,9.586383447265625,-13.435114503816793,19.641221374045802,2.877862595419847,25.430000000000007,,1
733,4.484339709472656,-7.64229169921875,8.999804040527343,-38.06870229007634,-4.885496183206107,13.51908396946565,25.430000000000007,,1
734,5.0014872680664055,-7.299920861816406,13.88636962890625,-23.404580152671755,-46.25954198473283,6.900763358778626,25.470000000000027,,1
735,7.467514978027343,-10.067617980957031,11.729193933105469,-16.229007633587788,-2.2213740458015265,14.65648854961832,25.470000000000027,,1
736,5.161898779296875,-12.31577333984375,19.61270144958496,-84.90076335877863,-46.732824427480914,30.435114503816795,25.470000000000027,,1
737,0.8475473876953125,-11.556811413574218,19.61270144958496,18.557251908396946,-84.18320610687023,-20.114503816793892,25.470000000000027,,1
738,-0.9169792358398436,-4.632780212402343,15.638925244140625,13.618320610687023,-0.8778625954198473,4.251908396946565,25.470000000000027,,1
739,-1.7525556152343749,1.5610194824218748,0.44053310546874996,-5.312977099236641,30.358778625954198,3.9236641221374047,25.470000000000027,,1
740,0.6488286499023437,-4.4819455078125,-2.408566870117187,-6.1603053435114505,78.58778625954199,20.87786259541985,25.470000000000027,,1
741,-1.6256629272460936,4.266467358398438,2.5067291381835934,25.297709923664122,12.198473282442748,-13.145038167938932,25.470000000000027,,1
742,-9.100360510253905,3.9791631591796874,8.406042028808594,26.389312977099237,-39.06106870229008,-20.03053435114504,25.470000000000027,,1
743,-2.039859814453125,-2.3247698120117186,10.548852514648438,34.19847328244275,-12.633587786259541,-5.984732824427481,25.470000000000027,,1
744,-1.8555062866210936,-4.594472985839843,3.909731311035156,29.419847328244273,-9.687022900763358,0.25190839694656486,25.610000000000014,,1
745,1.0821791503906248,0.44053310546874996,7.532158422851562,18.244274809160306,13.282442748091603,3.6259541984732824,25.610000000000014,,1
746,0.9337386474609375,-0.9935936889648437,5.923254907226562,14.312977099236642,-17.30534351145038,-7.0,25.610000000000014,,1
747,-3.8666356811523435,3.0430303100585934,5.1882349975585935,18.80916030534351,-13.282442748091603,-5.3893129770992365,25.610000000000014,,1
748,-1.8770541015625,2.882618798828125,12.947842578125,-7.229007633587786,-7.244274809160306,-12.030534351145038,25.610000000000014,,1
749,2.2194249389648437,3.35188232421875,7.702146740722656,-25.64885496183206,27.83206106870229,6.435114503816794,25.610000000000014,,1
750,2.7629087158203123,4.271255761718749,6.64630380859375,-23.801526717557252,42.541984732824424,-10.702290076335878,25.610000000000014,,1
751,-0.9169792358398436,1.3646949462890625,8.604760766601562,-22.099236641221374,24.374045801526716,-15.251908396946565,25.610000000000014,,1
752,1.5562310791015623,3.3255461059570313,13.860033410644531,-33.32824427480916,18.236641221374047,-13.419847328244275,25.610000000000014,,1
753,-4.599261389160156,1.7477672119140624,18.626888916015623,-35.31297709923664,-8.465648854961833,-11.32824427480916,25.630000000000052,,1
754,-10.912771166992187,-1.915361328125,-0.9337386474609375,2.7557251908396947,-9.549618320610687,-37.69465648854962,25.630000000000052,,1
755,0.25139117431640623,-1.5634136840820312,9.6917283203125,-3.854961832061069,-21.34351145038168,-32.770992366412216,25.630000000000052,,1
756,-2.463633508300781,-9.023746057128905,-1.9776105712890624,1.9465648854961832,-55.99236641221374,-37.62595419847328,25.630000000000052,,1
757,3.2154128295898436,-9.018957653808593,11.880028637695311,-5.6106870229007635,-28.84732824427481,-4.534351145038168,25.630000000000052,,1
758,3.919308117675781,-8.05648858642578,4.168305090332031,-2.267175572519084,14.732824427480915,9.381679389312977,25.630000000000052,,1
759,0.7661445312499999,-8.99501563720703,4.65432802734375,3.66412213740458,9.007633587786259,2.0763358778625953,25.630000000000052,,1
760,1.6735469604492186,-10.587159741210938,4.089296435546875,6.091603053435114,-0.6183206106870229,11.793893129770993,25.630000000000052,,1
761,0.9217676391601562,-8.892064965820312,7.922413293457031,14.885496183206106,-37.412213740458014,4.091603053435114,25.630000000000052,,1
762,1.7477672119140624,-4.6447512207031245,6.79953271484375,28.793893129770993,-28.519083969465647,-9.068702290076336,25.53000000000003,,1
763,0.6105214233398437,-4.017470385742187,6.49307490234375,34.37404580152672,-16.9618320610687,-6.366412213740458,25.53000000000003,,1
764,0.16519991455078123,0.8858546142578124,7.5465236328125,30.03053435114504,-4.66412213740458,-9.51908396946565,25.53000000000003,,1
765,3.7038299682617186,0.5243301635742187,9.734823950195311,-24.671755725190838,5.213740458015267,16.290076335877863,25.53000000000003,,1
766,0.143652099609375,2.1643583007812497,4.534617944335937,45.06106870229008,-10.427480916030534,-12.801526717557252,25.53000000000003,,1
767,1.1133037719726562,6.624755993652343,11.386823095703125,25.68702290076336,-28.916030534351144,-20.709923664122137,25.53000000000003,,1
768,3.5003228271484375,2.4253262817382812,10.800243688964843,26.65648854961832,-41.282442748091604,-13.83206106870229,25.53000000000003,,1
769,0.6296750366210937,4.218583325195312,10.819397302246093,-9.870229007633588,2.595419847328244,-11.923664122137405,25.53000000000003,,1
770,8.542511523437499,-3.641580725097656,7.182604980468749,-59.67175572519084,41.55725190839695,-22.778625954198475,25.53000000000003,,1
771,1.5322890624999999,8.125920434570313,6.928819604492187,-8.32824427480916,59.412213740458014,-33.87786259541985,25.53000000000003,,1
772,8.434772448730468,1.0199299072265624,4.108450048828125,-21.106870229007633,25.015267175572518,-40.732824427480914,25.930000000000007,,1
773,5.284003063964843,-7.697358337402343,1.0797849487304687,-20.977099236641223,31.213740458015266,-11.244274809160306,25.930000000000007,,1
774,3.854664672851562,-7.1035963256835934,10.735600244140624,-3.0610687022900764,5.244274809160306,0.5267175572519084,25.930000000000007,,1
775,3.3327287109375,-13.874398620605469,10.218452685546874,-3.854961832061069,18.83969465648855,15.931297709923664,25.930000000000007,67.3870016028825,1
776,3.1938650146484373,-12.868833923339842,10.912771166992187,-17.34351145038168,16.099236641221374,27.81679389312977,25.930000000000007,,1
777,4.04141240234375,-6.093243225097656,19.19910311279297,-23.46564885496183,37.68702290076336,18.076335877862597,25.930000000000007,,1
778,-2.6862942626953124,-1.1013327636718748,8.2360537109375,-8.893129770992367,11.633587786259541,-3.2748091603053435,25.930000000000007,,1
779,-2.5258827514648434,0.1771709228515625,3.77326181640625,10.694656488549619,30.85496183206107,-9.992366412213741,25.930000000000007,,1
780,3.8690298828125,10.939107385253905,-14.956577770996093,11.34351145038168,54.94656488549618,8.16793893129771,25.930000000000007,,1
781,-4.8314989501953125,10.69968721923828,7.48906279296875,-55.14503816793893,50.33587786259542,37.76335877862596,25.350000000000023,,1
782,-6.354211206054687,-3.3016040893554686,7.261613635253906,20.045801526717558,23.297709923664122,-1.717557251908397,25.350000000000023,,1
783,9.466673364257812,5.813121630859374,8.640673791503906,47.3206106870229,4.6183206106870225,-25.709923664122137,25.350000000000023,,1
784,-3.7110125732421873,1.4891934326171874,12.981361401367186,24.6793893129771,-19.69465648854962,-8.65648854961832,25.350000000000023,,1
785,-0.2059013427734375,-0.7685387329101562,19.61270144958496,5.931297709923665,-42.603053435114504,-3.8244274809160306,25.350000000000023,,1
786,-8.413224633789062,3.689464758300781,12.679691992187498,31.984732824427482,-52.10687022900763,1.2290076335877862,25.350000000000023,,1
787,-6.138733056640625,2.588131994628906,-8.346186987304687,-67.03053435114504,75.94656488549619,-18.083969465648856,25.350000000000023,,1
788,12.203245861816406,12.064382165527343,5.149927770996094,-60.83206106870229,82.94656488549619,-14.374045801526718,25.350000000000023,,1
789,-3.0142998901367184,0.8595183959960937,12.84489190673828,13.511450381679388,-10.549618320610687,-19.015267175572518,25.350000000000023,,1
790,-14.585476513671875,-0.46686932373046874,12.81376728515625,60.099236641221374,-40.69465648854962,-40.969465648854964,25.350000000000023,,1
791,1.350329736328125,-5.238513232421875,16.98686077880859,-10.183206106870228,-28.801526717557252,-16.17557251908397,25.630000000000052,,1
792,-7.611167077636718,-4.302380383300781,6.478709692382812,29.114503816793892,-10.435114503816793,-10.992366412213741,25.630000000000052,,1
793,1.944091748046875,-12.045228552246092,12.571952917480468,-46.88549618320611,43.465648854961835,21.610687022900763,25.630000000000052,,1
794,5.647921716308593,-7.556100439453124,13.900734838867187,-61.19847328244275,-6.885496183206107,7.068702290076335,25.630000000000052,,1
795,-0.6344634399414062,-13.20881055908203,16.225504650878904,-23.251908396946565,-37.9236641221374,16.99236641221374,25.630000000000052,,1
796,4.5585599609375,-13.76426534423828,6.830657336425781,-28.137404580152673,50.19847328244275,45.81679389312977,25.630000000000052,,1
797,5.006275671386718,-10.457872851562499,7.692569934082031,-16.47328244274809,17.17557251908397,6.625954198473282,25.630000000000052,,1
798,4.292803576660156,-9.524134204101562,16.49126103515625,-31.099236641221374,-11.916030534351146,26.50381679389313,25.630000000000052,,1
799,9.210493786621093,-10.658985791015624,4.493916516113281,-19.916030534351144,-14.770992366412214,46.50381679389313,25.630000000000052,,1
800,0.40222587890625,-10.541669909667968,4.958391638183594,16.419847328244273,-20.396946564885496,24.282442748091604,25.49000000000001,,1
801,-0.4955997436523437,-13.311761230468749,6.373364819335937,75.4885496183206,-64.81679389312977,4.129770992366412,25.49000000000001,,1
802,1.0199299072265624,-10.417171423339843,11.295843432617186,79.13740458015268,-57.35114503816794,-0.4961832061068702,25.49000000000001,,1
803,4.5322237426757805,-3.801992236328125,9.718064538574218,37.14503816793893,-25.61832061068702,-22.458015267175572,25.49000000000001,,1
804,5.559336254882812,-3.308786694335937,8.425195642089843,-0.2900763358778626,0.22137404580152673,5.038167938931298,25.49000000000001,,1
805,3.9695863525390624,-6.167463476562499,13.608642236328125,23.12213740458015,-47.33587786259542,-10.053435114503817,25.49000000000001,,1
806,-5.559336254882812,-8.839392529296875,19.61270144958496,7.778625954198473,-55.82442748091603,-44.69465648854962,25.49000000000001,,1
807,-3.1004911499023438,-10.831368310546875,0.8882488159179687,6.969465648854962,37.152671755725194,-8.320610687022901,25.49000000000001,,1
808,0.4333505004882812,-6.270414147949219,3.8379052612304685,8.793893129770993,-8.648854961832061,-20.84732824427481,25.49000000000001,,1
809,5.228936425781249,-8.145074047851562,16.46013641357422,-11.954198473282442,-4.106870229007634,-11.961832061068701,25.49000000000001,,1
810,2.73896669921875,-4.101267443847656,7.232883215332031,-25.022900763358777,1.8702290076335877,-7.687022900763359,25.850000000000023,,1
811,2.932897033691406,-7.544129431152343,8.188169677734374,-19.045801526717558,9.488549618320612,-4.465648854961832,25.850000000000023,,1
812,3.1555577880859373,-8.240842114257813,11.02529864501953,-48.343511450381676,-22.213740458015266,5.908396946564886,25.850000000000023,,1
813,2.068590234375,-11.051634863281249,14.463372229003905,-38.98473282442748,-18.389312977099237,-6.931297709923665,25.850000000000023,,1
814,-1.39821376953125,-9.241618408203124,8.588001354980468,-2.3587786259541983,-18.755725190839694,-19.458015267175572,25.850000000000023,,1
815,1.5586252807617187,-5.439626171875,8.487444885253906,2.3740458015267176,-16.404580152671755,-20.396946564885496,25.850000000000023,,1
816,3.5027170288085934,-6.4475850708007805,6.4643444824218745,-2.1908396946564888,-2.5114503816793894,-6.244274809160306,25.850000000000023,,1
817,1.924938134765625,-2.521094348144531,7.783549597167968,-5.6183206106870225,-11.16030534351145,-2.122137404580153,25.850000000000023,,1
818,-0.8858546142578124,-2.1308394775390624,9.457096557617186,1.0381679389312977,1.366412213740458,-7.732824427480916,25.850000000000023,,1
819,1.3407529296874998,2.5522189697265625,7.915230688476562,6.4961832061068705,10.633587786259541,-3.33587786259542,25.590000000000032,,1
820,-0.17238251953125,-0.2346317626953125,10.01015714111328,8.106870229007633,6.9541984732824424,-11.404580152671755,25.590000000000032,,1
821,2.0183119995117185,-4.781220715332031,7.216123803710937,-4.251908396946565,31.045801526717558,6.7251908396946565,25.590000000000032,,1
822,0.5961562133789062,0.4477157104492187,8.166621862792969,-18.16030534351145,8.938931297709924,16.557251908396946,25.590000000000032,,1
823,-2.0087351928710935,-1.2976572998046874,4.843469958496094,16.87786259541985,18.458015267175572,0.3893129770992366,25.590000000000032,,1
824,-2.961627453613281,3.404554760742187,2.4899697265625,-16.931297709923665,33.10687022900763,6.6106870229007635,25.590000000000032,,1
825,6.469132885742187,-1.0702081420898437,6.921636999511718,-9.977099236641221,46.74809160305343,33.29007633587786,25.590000000000032,,1
826,-1.5370774658203123,3.1100679565429687,0.5985504150390625,-33.86259541984733,57.152671755725194,7.083969465648855,25.590000000000032,,1
827,0.12689268798828124,-1.458068811035156,4.716577270507813,-7.404580152671755,13.335877862595419,-27.9618320610687,25.590000000000032,,1
828,-6.030993981933594,3.8187516479492185,1.5203180541992187,20.206106870229007,25.091603053435115,-28.541984732824428,25.590000000000032,,1
829,-0.5698199951171875,5.437231970214843,9.442731347656249,-21.15267175572519,35.954198473282446,-17.0381679389313,25.850000000000023,72.53249588640512,1
830,3.4572271972656248,-5.463568188476562,10.117896215820313,-34.85496183206107,-16.244274809160306,0.20610687022900764,25.850000000000023,72.53249588640512,1
831,-0.6727706665039062,-9.773131176757811,9.440337145996093,4.793893129770993,-52.80152671755725,-9.206106870229007,25.850000000000023,,1
832,0.8212111694335937,-9.208099584960937,19.61270144958496,-5.67175572519084,-92.35114503816794,-41.98473282442748,25.850000000000023,,1
833,-0.2442085693359375,-6.387730029296875,9.200916979980468,-1.4732824427480915,-56.99236641221374,-34.458015267175576,25.850000000000023,,1
834,-1.2569558715820313,-6.787561706542968,7.211335400390625,14.412213740458014,-29.47328244274809,2.1603053435114505,25.850000000000023,,1
835,7.730877160644531,-12.167332836914062,12.167332836914062,-14.473282442748092,-3.015267175572519,18.16793893129771,25.850000000000023,,1
836,6.095637426757812,-11.69567510986328,13.508085766601562,1.900763358778626,-59.3587786259542,8.49618320610687,25.850000000000023,,1
837,2.442085693359375,-12.502521069335936,19.393033447265623,-11.610687022900763,-47.603053435114504,6.396946564885496,25.850000000000023,,1
838,6.715735656738281,-3.0047230834960934,12.638990563964843,-48.66412213740458,-4.549618320610687,43.091603053435115,25.850000000000023,,1
839,13.28542501220703,2.185906115722656,17.870321191406248,-16.091603053435115,-45.099236641221374,36.43511450381679,25.590000000000032,,1
840,-7.738059765625,-5.932831713867187,14.97094298095703,38.847328244274806,-27.9618320610687,-5.343511450381679,25.590000000000032,,1
841,-0.316034619140625,-1.9105729248046874,10.213664282226562,19.0381679389313,-5.351145038167939,-13.977099236641221,25.590000000000032,,1
842,-2.767697119140625,6.816292126464844,-2.6001030029296874,49.732824427480914,31.83969465648855,-23.916030534351144,25.590000000000032,,1
843,5.736507177734374,3.6056677001953124,-0.6009446166992187,-27.244274809160306,95.3969465648855,2.3206106870229006,25.590000000000032,,1
844,-4.129997863769531,2.741360900878906,5.437231970214843,0.5725190839694656,4.763358778625954,-2.6564885496183206,25.590000000000032,,1
845,-8.774749084472656,2.636016027832031,11.482591162109374,25.641221374045802,-59.85496183206107,-22.99236641221374,25.590000000000032,,1
846,-4.65432802734375,-13.290213415527344,13.788207360839843,24.81679389312977,-20.427480916030536,-11.801526717557252,25.590000000000032,,1
847,-5.533000036621093,-6.598419775390624,18.181567407226563,-1.4961832061068703,-9.17557251908397,-31.748091603053435,25.590000000000032,,1
848,2.0877438476562498,-6.751648681640624,9.34696328125,7.3893129770992365,5.244274809160306,9.061068702290076,25.670000000000016,,1
849,6.339845996093749,-12.107477795410155,4.220977526855468,-10.274809160305344,24.83206106870229,39.6793893129771,25.670000000000016,,1
850,4.498704919433593,-8.022969763183593,19.61270144958496,-43.68702290076336,-11.061068702290076,-5.015267175572519,25.670000000000016,,1
851,8.693346228027343,-8.374917407226562,12.504915270996094,-43.43511450381679,-34.732824427480914,8.86259541984733,25.670000000000016,,1
852,5.475539196777343,-13.826514587402343,-1.3120225097656248,25.99236641221374,-38.79389312977099,3.6946564885496183,25.670000000000016,,1
853,4.833893151855468,-10.771513269042968,12.509703674316405,-23.69465648854962,-0.10687022900763359,15.557251908396946,25.670000000000016,,1
854,1.0797849487304687,-9.634267480468749,10.436325036621094,-49.69465648854962,-42.62595419847328,23.396946564885496,25.670000000000016,,1
855,6.0525417968749995,-18.61012950439453,1.9704279663085937,0.3969465648854962,42.97709923664122,39.25954198473283,25.670000000000016,,1
856,9.253589416503905,-10.20169327392578,5.142745166015625,-82.0,50.038167938931295,54.41984732824427,25.670000000000016,,1
857,3.3446997192382812,-15.464148522949218,19.61270144958496,-33.603053435114504,-108.45801526717557,-6.0458015267175576,25.670000000000016,,1
858,6.198588098144531,-13.302184423828125,19.61270144958496,34.79389312977099,-40.44274809160305,19.51145038167939,25.670000000000016,,1
859,0.55545478515625,-4.7189714721679685,13.64934366455078,23.709923664122137,-53.091603053435115,9.183206106870228,25.670000000000016,,1
860,7.350199096679687,0.7876923461914062,11.784260571289062,-63.091603053435115,47.19083969465649,23.27480916030534,25.670000000000016,,1
861,3.5793314819335937,-4.572925170898437,5.7125651611328125,11.34351145038168,-2.969465648854962,-4.66412213740458,25.670000000000016,,1
862,2.712630480957031,-1.697488977050781,6.830657336425781,1.2213740458015268,24.931297709923665,0.42748091603053434,25.670000000000016,,1
863,2.446874096679687,1.3359645263671873,8.492233288574218,14.893129770992367,-8.450381679389313,-20.72519083969466,25.670000000000016,,1
864,-0.9624690673828125,1.4030021728515625,8.355763793945313,16.290076335877863,22.34351145038168,-24.893129770992367,25.670000000000016,,1
